"","Subject","Trial","Condition","SS1vSS2top","SS1amount","SS1delay","LL1amount","LL1delay","SS2amount","SS2delay","LL2amount","LL2delay","TrialStart","RT","TrialOver","Choice","Run","Day"
"1",101,1,3,0,13.39,0,1.53,21,1.34,0,15.32,21,2.1283,1.7231,2.309,0,1,"Fast"
"2",101,2,44,0,9.81,21,1.53,84,0.98,21,15.32,84,4.4728,2.0738,2.5963,0,1,"Fast"
"3",101,3,41,1,14.82,21,1.53,84,1.48,21,15.32,84,7.0997,2.1828,2.6969,0,1,"Fast"
"4",101,4,34,0,12.36,21,1.53,42,1.24,21,15.32,42,9.8269,1.4558,1.9804,0,1,"Fast"
"5",101,5,12,0,13.26,0,1.53,63,1.33,0,15.32,63,11.8388,2.0758,2.5966,0,1,"Fast"
"6",101,6,43,1,11.59,21,1.53,84,1.16,21,15.32,84,14.4659,2.6564,3.1787,0,1,"Fast"
"7",101,7,34,1,12.36,21,1.53,42,7.59,21,7.44,42,17.6916,3.8085,4.3258,0,1,"Fast"
"8",101,8,26,1,14.82,7,1.53,70,1.48,7,15.32,70,22.0481,2.3488,2.8628,1,1,"Fast"
"9",101,9,43,1,11.59,21,1.53,84,7.12,21,7.44,84,24.9413,1.7441,2.2641,0,1,"Fast"
"10",101,10,44,0,9.81,21,1.53,84,6.03,21,7.44,84,27.2359,1.1527,1.6655,0,1,"Fast"
"11",101,11,23,0,14.38,7,1.53,49,1.44,7,15.32,49,28.9319,1.0967,1.6153,0,1,"Fast"
"12",101,12,35,1,15.32,21,1.75,42,1.53,21,17.52,42,30.578,1.1949,1.7146,0,1,"Fast"
"13",101,13,11,0,14.82,0,1.53,63,1.48,0,15.32,63,32.3239,1.3855,1.8983,0,1,"Fast"
"14",101,14,28,1,11.59,7,1.53,70,1.16,7,15.32,70,34.2526,1.0559,1.5826,0,1,"Fast"
"15",101,15,7,0,14.38,0,1.53,42,1.44,0,15.32,42,35.8655,1.379,1.8982,0,1,"Fast"
"16",101,16,22,0,14.84,7,1.53,49,1.48,7,15.32,49,37.7943,1.1548,1.6655,0,1,"Fast"
"17",101,17,35,1,15.32,21,1.75,42,9.41,21,8.51,42,39.4903,1.0191,1.5316,0,1,"Fast"
"18",101,18,8,1,13.39,0,1.53,42,1.34,0,15.32,42,41.0533,1.0473,1.5653,0,1,"Fast"
"19",101,19,7,1,14.38,0,1.53,42,8.83,0,7.44,42,42.6661,1.1068,1.6325,0,1,"Fast"
"20",101,20,32,0,14.38,21,1.53,42,1.44,21,15.32,42,44.3289,1.8759,2.3961,0,1,"Fast"
"21",101,21,16,0,14.84,7,1.53,28,1.48,7,15.32,28,46.7565,2.1198,2.6462,0,1,"Fast"
"22",101,22,18,0,13.39,7,1.53,28,1.34,7,15.32,28,49.4335,1.5715,2.0813,0,1,"Fast"
"23",101,23,39,1,12.36,21,1.53,63,1.24,21,15.32,63,51.5452,1.5001,2.0148,0,1,"Fast"
"24",101,24,21,0,15.32,7,1.53,49,1.53,7,15.32,49,53.5903,1.2951,1.8152,0,1,"Fast"
"25",101,25,36,1,14.84,21,1.53,63,1.48,21,15.32,63,55.4361,1.0017,1.5153,0,1,"Fast"
"26",101,26,3,1,13.39,0,1.53,21,8.23,0,7.44,21,56.9824,1.1821,1.6988,0,1,"Fast"
"27",101,27,11,1,14.82,0,1.53,63,9.1,0,7.44,63,58.7117,1.0015,1.5158,0,1,"Fast"
"28",101,28,24,0,13.39,7,1.53,49,1.34,7,15.32,49,60.258,2.2423,2.7628,0,1,"Fast"
"29",101,29,33,1,13.39,21,1.53,42,1.34,21,15.32,42,63.0514,1.0811,1.5989,0,1,"Fast"
"30",101,30,39,0,12.36,21,1.53,63,7.59,21,7.44,63,64.6809,1.2836,1.7984,0,1,"Fast"
"31",101,31,10,1,15.32,0,1.75,42,1.53,0,17.52,42,66.5099,1.0017,1.516,0,1,"Fast"
"32",101,32,8,1,13.39,0,1.53,42,8.23,0,7.44,42,68.0563,1.2289,1.7483,0,1,"Fast"
"33",101,33,8,1,13.39,0,1.53,42,11.67,0,3.5,42,69.852,1.345,1.865,1,1,"Fast"
"34",101,34,1,0,14.84,0,1.53,21,1.48,0,15.32,21,71.7476,1.0017,1.5149,0,1,"Fast"
"35",101,35,11,1,14.82,0,1.53,63,12.91,0,3.5,63,73.2939,1.0017,1.5152,1,1,"Fast"
"36",101,36,6,1,14.84,0,1.53,42,1.48,0,15.32,42,74.8403,1.0017,1.516,0,1,"Fast"
"37",101,37,43,0,11.59,21,1.53,84,10.1,21,3.5,84,76.4033,1.6734,2.1975,0,1,"Fast"
"38",101,38,17,1,14.38,7,1.53,28,1.44,7,15.32,28,78.6314,1.1494,1.6652,0,1,"Fast"
"39",101,39,15,1,15.17,0,1.75,63,1.52,0,17.52,63,80.3274,1.0017,1.5158,0,1,"Fast"
"40",101,40,13,1,11.59,0,1.53,63,1.16,0,15.32,63,81.8737,1.2271,1.7483,0,1,"Fast"
"41",101,41,4,1,12.36,0,1.53,21,1.24,0,15.32,21,83.6528,1.0016,1.5159,0,1,"Fast"
"42",101,42,20,0,15.32,7,1.75,28,1.53,7,17.52,28,85.1992,1.5335,2.047,0,1,"Fast"
"43",101,43,5,0,15.32,0,1.75,21,1.53,0,17.52,21,87.2777,2.0876,2.6125,0,1,"Fast"
"44",101,44,18,0,13.39,7,1.53,28,8.23,7,7.44,28,89.9214,1.9152,2.43,0,1,"Fast"
"45",101,45,41,0,14.82,21,1.53,84,9.1,21,7.44,84,92.3823,1.0707,1.5819,0,1,"Fast"
"46",101,46,35,0,15.32,21,1.75,42,13.35,21,4,42,93.9952,1.4662,1.9815,0,1,"Fast"
"47",101,47,28,0,11.59,7,1.53,70,7.12,7,7.44,70,96.0071,1.0016,1.5155,0,1,"Fast"
"48",101,48,40,1,15.32,21,1.75,63,1.53,21,17.52,63,97.5534,1.0016,1.5157,0,1,"Fast"
"49",101,49,19,0,12.36,7,1.53,28,1.24,7,15.32,28,99.0998,1.0017,1.5159,0,1,"Fast"
"50",101,50,21,1,15.32,7,1.53,49,9.41,7,7.44,49,100.6461,1.0012,1.5158,0,1,"Fast"
"51",101,51,10,0,15.32,0,1.75,42,9.41,0,8.51,42,102.1925,1.4367,1.9482,0,1,"Fast"
"52",101,52,21,0,15.32,7,1.53,49,13.35,7,3.5,49,104.1712,1.0018,1.515,0,1,"Fast"
"53",101,53,6,0,14.84,0,1.53,42,9.12,0,7.44,42,105.7175,1.3746,1.8976,0,1,"Fast"
"54",101,54,44,0,9.81,21,1.53,84,8.55,21,3.5,84,107.6463,1.3109,1.8319,0,1,"Fast"
"55",101,55,30,1,15.17,7,1.75,70,1.52,7,17.52,70,109.5086,1.0011,1.5161,0,1,"Fast"
"56",101,56,40,1,15.32,21,1.75,63,9.41,21,8.51,63,111.0549,1.0017,1.5156,0,1,"Fast"
"57",101,57,33,1,13.39,21,1.53,42,8.23,21,7.44,42,112.6013,1.0122,1.5325,0,1,"Fast"
"58",101,58,4,0,12.36,0,1.53,21,7.59,0,7.44,21,114.1642,1.001,1.5156,0,1,"Fast"
"59",101,59,38,1,13.39,21,1.53,63,1.34,21,15.32,63,115.7106,1.3425,1.8646,0,1,"Fast"
"60",101,60,16,0,14.84,7,1.53,28,9.12,7,7.44,28,117.6062,1.0018,1.5157,0,1,"Fast"
"61",101,61,20,1,15.32,7,1.75,28,9.41,7,8.51,28,119.1525,1.0008,1.516,0,1,"Fast"
"62",101,62,25,0,12.36,7,1.53,49,1.24,7,15.32,49,120.6989,1.1051,1.6324,0,1,"Fast"
"63",101,63,41,0,14.82,21,1.53,84,12.91,21,3.5,84,122.3615,1.2118,1.7321,0,1,"Fast"
"64",101,64,13,1,11.59,0,1.53,63,7.12,0,7.44,63,124.1241,1.2328,1.7486,0,1,"Fast"
"65",101,65,37,1,14.38,21,1.53,63,1.44,21,15.32,63,125.9033,1.2932,1.8142,0,1,"Fast"
"66",101,66,32,1,14.38,21,1.53,42,8.83,21,7.44,42,127.7489,1.3511,1.8643,0,1,"Fast"
"67",101,67,23,1,14.38,7,1.53,49,8.83,7,7.44,49,129.6445,1.4248,1.9478,0,1,"Fast"
"68",101,68,26,0,7.2,7,9.41,70,1.48,7,15.32,70,131.6231,1.118,1.6319,0,1,"Fast"
"69",101,69,45,1,15.17,21,1.75,84,1.52,21,17.52,84,133.2859,1.2068,1.7316,0,1,"Fast"
"70",101,70,29,0,9.81,7,1.53,70,0.98,7,15.32,70,135.0484,1.0017,1.5154,0,1,"Fast"
"71",101,71,5,0,15.32,0,1.75,21,9.41,0,8.51,21,136.5947,1.0012,1.5154,0,1,"Fast"
"72",101,72,27,1,13.26,7,1.53,70,1.33,7,15.32,70,138.1411,1.2951,1.8142,0,1,"Fast"
"73",101,73,42,0,13.26,21,1.53,84,1.33,21,15.32,84,139.9867,1.1386,1.6645,0,1,"Fast"
"74",101,74,14,0,9.81,0,1.53,63,0.98,0,15.32,63,141.6827,1.0016,1.5159,0,1,"Fast"
"75",101,75,1,1,14.84,0,1.53,21,9.12,0,7.44,21,143.2291,1.1201,1.6319,0,1,"Fast"
"76",101,76,34,0,12.36,21,1.53,42,10.77,21,3.5,42,144.8919,1.4243,1.9482,0,1,"Fast"
"77",101,77,2,0,14.38,0,1.53,21,1.44,0,15.32,21,146.8705,1.0056,1.5328,0,1,"Fast"
"78",101,78,9,1,12.36,0,1.53,42,1.24,0,15.32,42,148.4335,1.0016,1.5157,0,1,"Fast"
"79",101,79,38,0,13.39,21,1.53,63,8.23,21,7.44,63,149.9799,1.3845,1.8987,0,1,"Fast"
"80",101,80,19,0,12.36,7,1.53,28,7.59,7,7.44,28,151.9086,1.0018,1.5154,0,1,"Fast"
"81",101,81,19,0,12.36,7,1.53,28,10.77,7,3.5,28,153.455,1.2704,1.7986,0,1,"Fast"
"82",101,82,10,1,15.32,0,1.75,42,13.35,0,4,42,155.2838,1.0486,1.5659,0,1,"Fast"
"83",101,83,18,1,13.39,7,1.53,28,11.67,7,3.5,28,156.8803,1.8846,2.3971,0,1,"Fast"
"84",101,84,6,0,14.84,0,1.53,42,12.93,0,3.5,42,159.3079,1.4091,1.9311,0,1,"Fast"
"85",101,85,7,1,14.38,0,1.53,42,12.53,0,3.5,42,161.27,1.0017,1.5153,0,1,"Fast"
"86",101,86,12,0,13.26,0,1.53,63,8.15,0,7.44,63,162.8163,1.4209,1.9478,0,1,"Fast"
"87",101,87,9,0,12.36,0,1.53,42,7.59,0,7.44,42,164.7949,1.0016,1.5151,0,1,"Fast"
"88",101,88,15,1,15.17,0,1.75,63,9.32,0,8.51,63,166.3413,1.0017,1.516,0,1,"Fast"
"89",101,89,23,1,14.38,7,1.53,49,12.53,7,3.5,49,167.8876,1.1964,1.7156,0,1,"Fast"
"90",101,90,15,0,15.17,0,1.75,63,13.22,0,4,63,169.6335,1.1387,1.6647,0,1,"Fast"
"91",101,91,2,0,14.38,0,1.53,21,8.83,0,7.44,21,171.3295,1.0017,1.516,0,1,"Fast"
"92",101,92,31,0,14.84,21,1.53,42,1.48,21,15.32,42,172.8759,1.0814,1.5986,0,1,"Fast"
"93",101,93,22,1,14.84,7,1.53,49,9.12,7,7.44,49,174.5054,1.0009,1.5158,0,1,"Fast"
"94",101,94,39,0,12.36,21,1.53,63,10.77,21,3.5,63,176.0518,1.0017,1.5155,0,1,"Fast"
"95",101,95,14,0,9.81,0,1.53,63,6.03,0,7.44,63,177.5981,1.0017,1.5159,0,1,"Fast"
"96",101,96,33,0,13.39,21,1.53,42,11.67,21,3.5,42,179.1443,1.0008,1.5161,0,1,"Fast"
"97",101,97,26,0,14.82,7,1.53,70,12.91,7,3.5,70,180.6908,1.2101,1.7313,0,1,"Fast"
"98",101,98,9,1,12.36,0,1.53,42,10.77,0,3.5,42,182.4531,1.0321,1.5485,0,1,"Fast"
"99",101,99,36,0,14.84,21,1.53,63,9.12,21,7.44,63,184.0329,1.3071,1.832,0,1,"Fast"
"100",101,100,5,1,15.32,0,1.75,21,13.35,0,4,21,185.895,1.0007,1.5157,0,1,"Fast"
"101",101,101,16,0,14.84,7,1.53,28,12.93,7,3.5,28,187.4416,1.0269,1.5493,0,1,"Fast"
"102",101,102,20,0,15.32,7,1.75,28,13.35,7,4,28,189.0212,1.3113,1.8315,0,1,"Fast"
"103",101,103,30,1,15.17,7,1.75,70,9.32,7,8.51,70,190.8835,1.0257,1.5482,0,1,"Fast"
"104",101,104,4,1,12.36,0,1.53,21,10.77,0,3.5,21,192.4631,1.1729,1.6989,0,1,"Fast"
"105",101,105,2,1,14.38,0,1.53,21,12.53,0,3.5,21,194.1923,1.0016,1.5159,0,1,"Fast"
"106",101,106,29,1,9.81,7,1.53,70,6.03,7,7.44,70,195.7387,1.0272,1.5479,0,1,"Fast"
"107",101,107,24,0,13.39,7,1.53,49,8.23,7,7.44,49,197.3183,1.0017,1.5154,0,1,"Fast"
"108",101,108,31,1,14.84,21,1.53,42,9.12,21,7.44,42,198.8646,1.0017,1.5159,0,1,"Fast"
"109",101,109,40,0,15.32,21,1.75,63,13.35,21,4,63,200.411,1.0016,1.5155,0,1,"Fast"
"110",101,110,29,1,9.81,7,1.53,70,8.55,7,3.5,70,201.9574,1.08,1.5989,1,1,"Fast"
"111",101,111,32,0,14.38,21,1.53,42,12.53,21,3.5,42,203.5867,1.0009,1.5162,1,1,"Fast"
"112",101,112,42,1,13.26,21,1.53,84,8.15,21,7.44,84,205.1332,1.0013,1.5155,0,1,"Fast"
"113",101,113,37,0,14.38,21,1.53,63,8.83,21,7.44,63,206.6795,1.0011,1.5161,0,1,"Fast"
"114",101,114,27,0,13.26,7,1.53,70,8.15,7,7.44,70,208.2259,1.0013,1.5149,0,1,"Fast"
"115",101,115,17,0,14.38,7,1.53,28,8.83,7,7.44,28,209.7723,1.0084,1.5316,0,1,"Fast"
"116",101,116,12,1,13.26,0,1.53,63,11.56,0,3.5,63,211.3352,1.0017,1.5154,0,1,"Fast"
"117",101,117,27,0,13.26,7,1.53,70,11.56,7,3.5,70,212.8816,1.0193,1.5326,0,1,"Fast"
"118",101,118,45,0,15.17,21,1.75,84,9.32,21,8.51,84,214.4446,1.0011,1.515,0,1,"Fast"
"119",101,119,3,0,13.39,0,1.53,21,11.67,0,3.5,21,215.9909,1.0065,1.532,0,1,"Fast"
"120",101,120,30,1,15.17,7,1.75,70,13.22,7,4,70,217.5539,1.0426,1.5659,1,1,"Fast"
"121",101,121,45,0,15.17,21,1.75,84,13.22,21,4,84,219.1501,1.0017,1.5155,0,1,"Fast"
"122",101,122,1,1,14.84,0,1.53,21,12.93,0,3.5,21,220.6965,1.0017,1.5154,0,1,"Fast"
"123",101,123,42,0,13.26,21,1.53,84,11.56,21,3.5,84,222.2428,1.0018,1.5159,0,1,"Fast"
"124",101,124,22,0,14.84,7,1.53,49,12.93,7,3.5,49,223.7892,1.3109,1.8319,0,1,"Fast"
"125",101,125,25,1,12.36,7,1.53,49,7.59,7,7.44,49,225.6515,1.0417,1.5651,0,1,"Fast"
"126",101,126,37,1,14.38,21,1.53,63,12.53,21,3.5,63,227.2477,1.1006,1.6156,0,1,"Fast"
"127",101,127,25,1,12.36,7,1.53,49,10.77,7,3.5,49,228.8938,1.4393,1.9648,0,1,"Fast"
"128",101,128,24,1,13.39,7,1.53,49,11.67,7,3.5,49,230.8892,1.2917,1.8151,0,1,"Fast"
"129",101,129,28,1,11.59,7,1.53,70,10.1,7,3.5,70,232.7348,1.5503,2.0642,0,1,"Fast"
"130",101,130,38,1,13.39,21,1.53,63,11.67,21,3.5,63,234.8299,1.6222,2.148,0,1,"Fast"
"131",101,131,13,1,11.59,0,1.53,63,10.1,0,3.5,63,237.0081,1.1084,1.6317,0,1,"Fast"
"132",101,132,14,1,9.81,0,1.53,63,8.55,0,3.5,63,238.6708,1.1024,1.6319,0,1,"Fast"
"133",101,133,17,1,14.38,7,1.53,28,12.53,7,3.5,28,240.3335,1.0147,1.5316,0,1,"Fast"
"134",101,134,36,0,14.84,21,1.53,63,12.93,21,3.5,63,241.8965,1.0128,1.5328,0,1,"Fast"
"135",101,135,31,1,14.84,21,1.53,42,12.93,21,3.5,42,243.4595,1.2648,1.7817,0,1,"Fast"
"136",101,1,17,0,14.38,7,1.53,28,1.44,7,15.32,28,2.127,1.378,1.9613,0,2,"Fed"
"137",101,2,10,0,15.32,0,1.75,42,1.53,0,17.52,42,4.1388,1.5506,2.0646,0,2,"Fed"
"138",101,3,1,0,14.84,0,1.53,21,1.48,0,15.32,21,6.2339,1.0162,1.5324,0,2,"Fed"
"139",101,4,12,1,13.26,0,1.53,63,1.33,0,15.32,63,7.8138,1.8203,2.3483,0,2,"Fed"
"140",101,5,15,1,15.17,0,1.75,63,1.52,0,17.52,63,10.1913,1.2029,1.7164,0,2,"Fed"
"141",101,6,34,1,12.36,21,1.53,42,1.24,21,15.32,42,11.9382,1.0007,1.5152,0,2,"Fed"
"142",101,7,37,0,14.38,21,1.53,63,1.44,21,15.32,63,13.4835,1.1421,1.6656,0,2,"Fed"
"143",101,8,2,0,14.38,0,1.53,21,1.44,0,15.32,21,15.1792,1.1662,1.6829,0,2,"Fed"
"144",101,9,22,0,14.84,7,1.53,49,1.48,7,15.32,49,16.8922,1.0372,1.5489,0,2,"Fed"
"145",101,10,38,0,13.39,21,1.53,63,1.34,21,15.32,63,18.472,1.0012,1.5157,0,2,"Fed"
"146",101,11,40,1,15.32,21,1.75,63,1.53,21,17.52,63,20.0181,1.0015,1.5156,0,2,"Fed"
"147",101,12,13,0,11.59,0,1.53,63,1.16,0,15.32,63,21.565,1.0006,1.5154,0,2,"Fed"
"148",101,13,5,0,15.32,0,1.75,21,1.53,0,17.52,21,23.1106,1.435,1.9483,0,2,"Fed"
"149",101,14,7,1,14.38,0,1.53,42,1.44,0,15.32,42,25.0895,1.0017,1.516,0,2,"Fed"
"150",101,15,3,0,13.39,0,1.53,21,1.34,0,15.32,21,26.636,1.0016,1.5159,0,2,"Fed"
"151",101,16,43,1,11.59,21,1.53,84,1.16,21,15.32,84,28.1831,1.2663,1.7815,0,2,"Fed"
"152",101,17,6,1,14.84,0,1.53,42,1.48,0,15.32,42,29.9954,1.1343,1.6479,0,2,"Fed"
"153",101,18,15,0,15.17,0,1.75,63,9.32,0,8.51,63,31.6907,1.0952,1.6157,0,2,"Fed"
"154",101,19,4,1,12.36,0,1.53,21,1.24,0,15.32,21,33.3376,1.0017,1.5148,0,2,"Fed"
"155",101,20,29,0,9.81,7,1.53,70,0.98,7,15.32,70,34.8832,1.0784,1.5998,0,2,"Fed"
"156",101,21,31,0,14.84,21,1.53,42,1.48,21,15.32,42,36.5136,1.0016,1.5156,0,2,"Fed"
"157",101,22,3,0,13.39,0,1.53,21,8.23,0,7.44,21,38.059,1.1427,1.6655,0,2,"Fed"
"158",101,23,9,0,12.36,0,1.53,42,1.24,0,15.32,42,39.7557,1.0016,1.5165,0,2,"Fed"
"159",101,24,12,0,13.26,0,1.53,63,8.15,0,7.44,63,41.3014,1.0017,1.5156,0,2,"Fed"
"160",101,25,8,1,13.39,0,1.53,42,1.34,0,15.32,42,42.8486,1.0097,1.5316,0,2,"Fed"
"161",101,26,24,1,13.39,7,1.53,49,1.34,7,15.32,49,44.4106,1.1035,1.6158,0,2,"Fed"
"162",101,27,26,1,14.82,7,1.53,70,1.48,7,15.32,70,46.0583,1.0072,1.5312,0,2,"Fed"
"163",101,28,43,1,11.59,21,1.53,84,7.12,21,7.44,84,47.6366,1.1974,1.7153,0,2,"Fed"
"164",101,29,44,1,9.81,21,1.53,84,0.98,21,15.32,84,49.3823,1.0356,1.5492,0,2,"Fed"
"165",101,30,19,0,12.36,7,1.53,28,1.24,7,15.32,28,50.9618,1.0017,1.516,0,2,"Fed"
"166",101,31,20,1,15.32,7,1.75,28,1.53,7,17.52,28,52.5091,1.0017,1.5155,0,2,"Fed"
"167",101,32,23,0,14.38,7,1.53,49,1.44,7,15.32,49,54.0545,1.0006,1.516,0,2,"Fed"
"168",101,33,37,1,14.38,21,1.53,63,8.83,21,7.44,63,55.6017,1.0007,1.5161,0,2,"Fed"
"169",101,34,41,1,14.82,21,1.53,84,1.48,21,15.32,84,57.1473,1.1183,1.6326,0,2,"Fed"
"170",101,35,13,0,11.59,0,1.53,63,7.12,0,7.44,63,58.81,1.0016,1.5165,0,2,"Fed"
"171",101,36,16,1,14.84,7,1.53,28,1.48,7,15.32,28,60.3563,1.0016,1.5158,0,2,"Fed"
"172",101,37,42,1,13.26,21,1.53,84,1.33,21,15.32,84,61.9033,1.107,1.6317,0,2,"Fed"
"173",101,38,1,0,14.84,0,1.53,21,9.12,0,7.44,21,63.5662,1.0914,1.6153,0,2,"Fed"
"174",101,39,14,0,9.81,0,1.53,63,0.98,0,15.32,63,65.2117,1.1903,1.7153,0,2,"Fed"
"175",101,40,41,0,14.82,21,1.53,84,9.1,21,7.44,84,66.9576,1.1959,1.7158,0,2,"Fed"
"176",101,41,21,1,15.32,7,1.53,49,1.53,7,15.32,49,68.7034,1.0016,1.5164,0,2,"Fed"
"177",101,42,23,1,14.38,7,1.53,49,8.83,7,7.44,49,70.2498,1.0017,1.5163,0,2,"Fed"
"178",101,43,29,0,9.81,7,1.53,70,6.03,7,7.44,70,71.7961,1.0005,1.5164,0,2,"Fed"
"179",101,44,42,1,13.26,21,1.53,84,8.15,21,7.44,84,73.3425,1.0351,1.5496,0,2,"Fed"
"180",101,45,10,0,15.32,0,1.75,42,9.41,0,8.51,42,74.9228,1.1503,1.6647,0,2,"Fed"
"181",101,46,37,0,14.38,21,1.53,63,12.53,21,3.5,63,76.6347,1.0011,1.5166,0,2,"Fed"
"182",101,47,41,1,14.82,21,1.53,84,12.91,21,3.5,84,78.181,1.0015,1.5162,0,2,"Fed"
"183",101,48,24,1,13.39,7,1.53,49,8.23,7,7.44,49,79.7274,1.1301,1.649,0,2,"Fed"
"184",101,49,6,1,14.84,0,1.53,42,9.12,0,7.44,42,81.4067,1.0017,1.5157,0,2,"Fed"
"185",101,50,36,0,14.84,21,1.53,63,1.48,21,15.32,63,82.9532,1.0162,1.5323,0,2,"Fed"
"186",101,51,33,1,13.39,21,1.53,42,1.34,21,15.32,42,84.517,1.0017,1.5152,0,2,"Fed"
"187",101,52,34,0,12.36,21,1.53,42,7.59,21,7.44,42,86.0634,1.0017,1.5158,0,2,"Fed"
"188",101,53,2,0,14.38,0,1.53,21,8.83,0,7.44,21,87.6095,1.0017,1.5157,0,2,"Fed"
"189",101,54,28,1,11.59,7,1.53,70,1.16,7,15.32,70,89.1555,1.0016,1.5153,0,2,"Fed"
"190",101,55,40,0,15.32,21,1.75,63,9.41,21,8.51,63,90.7012,1.0016,1.5171,0,2,"Fed"
"191",101,56,19,1,12.36,7,1.53,28,7.59,7,7.44,28,92.2475,1.0016,1.5162,0,2,"Fed"
"192",101,57,21,0,15.32,7,1.53,49,9.41,7,7.44,49,93.7947,1.0015,1.5155,0,2,"Fed"
"193",101,58,6,0,14.84,0,1.53,42,12.93,0,3.5,42,95.3573,1.0017,1.5158,0,2,"Fed"
"194",101,59,19,1,12.36,7,1.53,28,10.77,7,3.5,28,96.9035,1.0017,1.516,0,2,"Fed"
"195",101,60,44,1,9.81,21,1.53,84,6.03,21,7.44,84,98.4508,1.495,2.0144,0,2,"Fed"
"196",101,61,11,0,14.82,0,1.53,63,1.48,0,15.32,63,100.4952,1.1941,1.7156,0,2,"Fed"
"197",101,62,22,0,14.84,7,1.53,49,9.12,7,7.44,49,102.242,1.1674,1.6819,0,2,"Fed"
"198",101,63,32,0,14.38,21,1.53,42,1.44,21,15.32,42,103.9546,1.1188,1.6311,0,2,"Fed"
"199",101,64,17,0,14.38,7,1.53,28,8.83,7,7.44,28,105.6165,1.2096,1.732,0,2,"Fed"
"200",101,65,39,0,12.36,21,1.53,63,1.24,21,15.32,63,107.379,1.023,1.5489,0,2,"Fed"
"201",101,66,31,0,14.84,21,1.53,42,9.12,21,7.44,42,108.9584,1.0017,1.5159,0,2,"Fed"
"202",101,67,38,0,13.39,21,1.53,63,8.23,21,7.44,63,110.5049,1.0017,1.516,0,2,"Fed"
"203",101,68,1,0,14.84,0,1.53,21,12.93,0,3.5,21,112.0514,1.0015,1.5157,0,2,"Fed"
"204",101,69,25,1,12.36,7,1.53,49,1.24,7,15.32,49,113.5975,1.0016,1.5162,0,2,"Fed"
"205",101,70,36,1,14.84,21,1.53,63,9.12,21,7.44,63,115.1449,1.0017,1.5148,0,2,"Fed"
"206",101,71,43,1,11.59,21,1.53,84,10.1,21,3.5,84,116.6911,1.0015,1.5154,0,2,"Fed"
"207",101,72,7,1,14.38,0,1.53,42,8.83,0,7.44,42,118.2375,1.092,1.6153,0,2,"Fed"
"208",101,73,35,1,15.32,21,1.75,42,1.53,21,17.52,42,119.8828,1.1663,1.6821,0,2,"Fed"
"209",101,74,45,1,15.17,21,1.75,84,1.52,21,17.52,84,121.5954,1.0457,1.5658,0,2,"Fed"
"210",101,75,32,0,14.38,21,1.53,42,8.83,21,7.44,42,123.1916,1.0818,1.5989,0,2,"Fed"
"211",101,76,31,1,14.84,21,1.53,42,12.93,21,3.5,42,124.8211,1.1328,1.6495,0,2,"Fed"
"212",101,77,15,1,15.17,0,1.75,63,13.22,0,4,63,126.5015,1.0017,1.5148,0,2,"Fed"
"213",101,78,30,1,15.17,7,1.75,70,1.52,7,17.52,70,128.0469,1.0017,1.5164,0,2,"Fed"
"214",101,79,21,1,15.32,7,1.53,49,13.35,7,3.5,49,129.5931,1.1119,1.6324,0,2,"Fed"
"215",101,80,8,0,13.39,0,1.53,42,8.23,0,7.44,42,131.2561,1.0017,1.5159,0,2,"Fed"
"216",101,81,14,0,9.81,0,1.53,63,6.03,0,7.44,63,132.8031,1.2631,1.782,0,2,"Fed"
"217",101,82,16,0,14.84,7,1.53,28,9.12,7,7.44,28,134.6157,1.2585,1.7817,0,2,"Fed"
"218",101,83,16,1,14.84,7,1.53,28,12.93,7,3.5,28,136.4277,1.2465,1.7647,0,2,"Fed"
"219",101,84,40,0,15.32,21,1.75,63,13.35,21,4,63,138.2235,1.2019,1.7143,0,2,"Fed"
"220",101,85,18,0,13.39,7,1.53,28,1.34,7,15.32,28,139.9687,1.0016,1.516,0,2,"Fed"
"221",101,86,25,1,12.36,7,1.53,49,7.59,7,7.44,49,141.516,1.1501,1.6643,0,2,"Fed"
"222",101,87,42,1,13.26,21,1.53,84,11.56,21,3.5,84,143.2117,1.0544,1.582,0,2,"Fed"
"223",101,88,4,0,12.36,0,1.53,21,7.59,0,7.44,21,144.8246,1.1694,1.6817,0,2,"Fed"
"224",101,89,38,0,13.39,21,1.53,63,11.67,21,3.5,63,146.5366,1.0017,1.5156,0,2,"Fed"
"225",101,90,18,0,13.39,7,1.53,28,8.23,7,7.44,28,148.0836,1.1108,1.6318,0,2,"Fed"
"226",101,91,11,0,14.82,0,1.53,63,9.1,0,7.44,63,149.7457,1.0966,1.6157,0,2,"Fed"
"227",101,92,39,0,12.36,21,1.53,63,7.59,21,7.44,63,151.3919,1.0016,1.5148,0,2,"Fed"
"228",101,93,27,0,13.26,7,1.53,70,1.33,7,15.32,70,152.9391,1.0228,1.5483,0,2,"Fed"
"229",101,94,9,1,12.36,0,1.53,42,7.59,0,7.44,42,154.5184,1.06,1.582,0,2,"Fed"
"230",101,95,33,1,13.39,21,1.53,42,8.23,21,7.44,42,156.1305,1.0016,1.5167,0,2,"Fed"
"231",101,96,12,0,13.26,0,1.53,63,11.56,0,3.5,63,157.6779,1.1481,1.6656,0,2,"Fed"
"232",101,97,11,0,14.82,0,1.53,63,12.91,0,3.5,63,159.3735,1.005,1.532,0,2,"Fed"
"233",101,98,14,0,9.81,0,1.53,63,8.55,0,3.5,63,160.9362,1.1617,1.6822,0,2,"Fed"
"234",101,99,17,0,14.38,7,1.53,28,12.53,7,3.5,28,162.6494,1.025,1.5484,0,2,"Fed"
"235",101,100,23,0,14.38,7,1.53,49,12.53,7,3.5,49,164.228,1.3576,1.8818,0,2,"Fed"
"236",101,101,26,0,14.82,7,1.53,70,9.1,7,7.44,70,166.1405,1.0046,1.5335,0,2,"Fed"
"237",101,102,27,1,13.26,7,1.53,70,8.15,7,7.44,70,167.7043,1.0017,1.5148,0,2,"Fed"
"238",101,103,27,1,13.26,7,1.53,70,11.56,7,3.5,70,169.2498,1.2722,1.7986,0,2,"Fed"
"239",101,104,25,0,12.36,7,1.53,49,10.77,7,3.5,49,171.0793,1.0496,1.5657,0,2,"Fed"
"240",101,105,35,1,15.32,21,1.75,42,9.41,21,8.51,42,172.675,1.0017,1.5166,0,2,"Fed"
"241",101,106,3,0,13.39,0,1.53,21,11.67,0,3.5,21,174.2214,1.4608,1.9814,0,2,"Fed"
"242",101,107,20,0,15.32,7,1.75,28,9.41,7,8.51,28,176.2332,1.0016,1.5159,0,2,"Fed"
"243",101,108,32,1,14.38,21,1.53,42,12.53,21,3.5,42,177.7796,1.0016,1.5163,0,2,"Fed"
"244",101,109,18,1,13.39,7,1.53,28,11.67,7,3.5,28,179.326,1.2114,1.7322,0,2,"Fed"
"245",101,110,39,1,12.36,21,1.53,63,10.77,21,3.5,63,181.0885,1.121,1.6491,0,2,"Fed"
"246",101,111,29,1,9.81,7,1.53,70,8.55,7,3.5,70,182.7688,1.225,1.7478,0,2,"Fed"
"247",101,112,8,1,13.39,0,1.53,42,11.67,0,3.5,42,184.5469,1.2145,1.732,0,2,"Fed"
"248",101,113,4,1,12.36,0,1.53,21,10.77,0,3.5,21,186.3103,1.0005,1.5158,0,2,"Fed"
"249",101,114,30,1,15.17,7,1.75,70,9.32,7,8.51,70,187.8566,1.0015,1.5149,0,2,"Fed"
"250",101,115,30,1,15.17,7,1.75,70,13.22,7,4,70,189.4023,1.1833,1.6985,0,2,"Fed"
"251",101,116,36,0,14.84,21,1.53,63,12.93,21,3.5,63,191.1325,1.0371,1.5656,0,2,"Fed"
"252",101,117,22,1,14.84,7,1.53,49,12.93,7,3.5,49,192.7276,1.1387,1.6656,0,2,"Fed"
"253",101,118,45,1,15.17,21,1.75,84,9.32,21,8.51,84,194.4238,1.4339,1.9487,0,2,"Fed"
"254",101,119,45,0,15.17,21,1.75,84,13.22,21,4,84,196.4033,1.246,1.7636,1,2,"Fed"
"255",101,120,34,1,12.36,21,1.53,42,10.77,21,3.5,42,198.199,1.0016,1.5151,0,2,"Fed"
"256",101,121,24,0,13.39,7,1.53,49,11.67,7,3.5,49,199.7452,1.0017,1.515,0,2,"Fed"
"257",101,122,5,0,15.32,0,1.75,21,9.41,0,8.51,21,201.2918,1.0618,1.5817,0,2,"Fed"
"258",101,123,2,1,14.38,0,1.53,21,12.53,0,3.5,21,202.9045,1.1369,1.6648,0,2,"Fed"
"259",101,124,5,0,15.32,0,1.75,21,13.35,0,4,21,204.6005,1.2573,1.7818,0,2,"Fed"
"260",101,125,35,1,15.32,21,1.75,42,13.35,21,4,42,206.4122,1.1021,1.6168,0,2,"Fed"
"261",101,126,20,1,15.32,7,1.75,28,13.35,7,4,28,208.0578,1.0016,1.5165,0,2,"Fed"
"262",101,127,44,0,9.81,21,1.53,84,8.55,21,3.5,84,209.6055,1.3005,1.8139,0,2,"Fed"
"263",101,128,28,1,11.59,7,1.53,70,7.12,7,7.44,70,211.4501,1.5521,2.0652,0,2,"Fed"
"264",101,129,7,1,14.38,0,1.53,42,12.53,0,3.5,42,213.5461,1.2318,1.7484,0,2,"Fed"
"265",101,130,28,1,11.59,7,1.53,70,10.1,7,3.5,70,215.3249,1.0016,1.5163,1,2,"Fed"
"266",101,131,13,0,11.59,0,1.53,63,10.1,0,3.5,63,216.8709,1.8349,2.3475,0,2,"Fed"
"267",101,132,33,1,13.39,21,1.53,42,11.67,21,3.5,42,219.2491,1.4653,1.9813,0,2,"Fed"
"268",101,133,9,1,12.36,0,1.53,42,10.77,0,3.5,42,221.2615,1.0016,1.5148,0,2,"Fed"
"269",101,134,10,1,15.32,0,1.75,42,13.35,0,4,42,222.8076,1.0902,1.6159,0,2,"Fed"
"270",101,135,26,0,14.82,7,1.53,70,12.91,7,3.5,70,224.453,1.3008,1.8158,0,2,"Fed"
"271",102,1,42,0,8.15,21,7.44,84,6.44,21,9.41,84,2.1284,2.0379,2.6064,0,1,"Fed"
"272",102,2,7,0,8.83,0,7.44,42,6.98,0,9.41,42,4.7722,2.0267,2.547,0,1,"Fed"
"273",102,3,13,0,7.12,0,7.44,63,5.63,0,9.41,63,7.3494,5.3999,5.9217,0,1,"Fed"
"274",102,4,14,1,6.03,0,7.44,63,4.76,0,9.41,63,13.302,7.3373,7.8514,0,1,"Fed"
"275",102,5,7,0,12.53,0,3.5,42,10.68,0,5.47,42,21.2001,3.064,3.5777,0,1,"Fed"
"276",102,6,8,1,8.23,0,7.44,42,6.5,0,9.41,42,24.8082,2.4868,3.0124,0,1,"Fed"
"277",102,7,11,0,9.1,0,7.44,63,7.2,0,9.41,63,27.8511,4.2947,4.8075,0,1,"Fed"
"278",102,8,41,1,9.1,21,7.44,84,7.2,21,9.41,84,32.6897,6.1227,6.6364,1,1,"Fed"
"279",102,9,22,0,9.12,7,7.44,49,7.21,7,9.41,49,39.3573,4.9488,5.4734,1,1,"Fed"
"280",102,10,2,1,8.83,0,7.44,21,6.98,0,9.41,21,44.861,2.4929,3.0123,0,1,"Fed"
"281",102,11,32,1,8.83,21,7.44,42,6.98,21,9.41,42,47.9038,5.0128,5.5229,0,1,"Fed"
"282",102,12,17,0,8.83,7,7.44,28,6.98,7,9.41,28,53.4574,5.054,5.573,0,1,"Fed"
"283",102,13,26,0,9.1,7,7.44,70,7.2,7,9.41,70,59.0609,1.9311,2.4465,0,1,"Fed"
"284",102,14,8,0,11.67,0,3.5,42,9.95,0,5.47,42,61.5384,1.5978,2.1138,1,1,"Fed"
"285",102,15,18,0,8.23,7,7.44,28,6.5,7,9.41,28,63.6832,5.3447,5.8556,0,1,"Fed"
"286",102,16,34,1,7.59,21,7.44,42,6,21,9.41,42,69.5694,1.9782,2.4958,0,1,"Fed"
"287",102,17,29,0,6.03,7,7.44,70,4.76,7,9.41,70,72.0968,4.9884,5.5058,0,1,"Fed"
"288",102,18,32,1,12.53,21,3.5,42,10.68,21,5.47,42,77.6504,7.4271,7.9501,1,1,"Fed"
"289",102,19,18,0,11.67,7,3.5,28,9.95,7,5.47,28,85.6316,3.982,4.4921,0,1,"Fed"
"290",102,20,14,0,8.55,0,3.5,63,7.29,0,5.47,63,90.1543,2.0034,2.5133,0,1,"Fed"
"291",102,21,16,0,9.12,7,7.44,28,7.21,7,9.41,28,92.6982,1.4503,1.9648,0,1,"Fed"
"292",102,22,5,1,9.41,0,8.51,21,7.44,0,10.76,21,94.6935,7.0744,7.5846,0,1,"Fed"
"293",102,23,10,0,9.41,0,8.51,42,7.44,0,10.76,42,102.3089,2.2437,2.7627,0,1,"Fed"
"294",102,24,22,1,5.3,7,11.38,49,3.39,7,13.35,49,105.1023,4.9403,5.4565,0,1,"Fed"
"295",102,25,9,0,7.59,0,7.44,42,6,0,9.41,42,110.5894,2.8049,3.3275,0,1,"Fed"
"296",102,26,23,1,8.83,7,7.44,49,6.98,7,9.41,49,113.9482,3.3496,3.8602,0,1,"Fed"
"297",102,27,36,0,9.12,21,7.44,63,7.21,21,9.41,63,117.839,1.7702,2.2803,0,1,"Fed"
"298",102,28,30,1,9.32,7,8.51,70,7.37,7,10.76,70,120.1502,1.899,2.4138,0,1,"Fed"
"299",102,29,13,0,10.1,0,3.5,63,8.61,0,5.47,63,122.5944,1.8945,2.4136,0,1,"Fed"
"300",102,30,36,1,12.93,21,3.5,63,11.02,21,5.47,63,125.0386,2.1544,2.663,1,1,"Fed"
"301",102,31,1,1,9.12,0,7.44,21,7.21,0,9.41,21,127.7323,1.4449,1.9639,0,1,"Fed"
"302",102,32,45,1,9.32,21,8.51,84,7.37,21,10.76,84,129.7277,4.5242,5.0407,0,1,"Fed"
"303",102,33,39,0,7.59,21,7.44,63,6,21,9.41,63,134.799,1.75,2.2641,0,1,"Fed"
"304",102,34,27,1,8.15,7,7.44,70,6.44,7,9.41,70,137.0936,2.1189,2.6299,0,1,"Fed"
"305",102,35,37,1,8.83,21,7.44,63,6.98,21,9.41,63,139.7539,2.5628,3.0788,0,1,"Fed"
"306",102,36,31,1,9.12,21,7.44,42,7.21,21,9.41,42,142.8633,4.5552,5.0733,1,1,"Fed"
"307",102,37,25,0,7.59,7,7.44,49,6,7,9.41,49,147.968,4.0881,4.6084,0,1,"Fed"
"308",102,38,40,1,9.41,21,8.51,63,7.44,21,10.76,63,152.607,3.1855,3.7107,0,1,"Fed"
"309",102,39,20,0,9.41,7,8.51,28,7.44,7,10.76,28,156.3482,2.2367,2.745,0,1,"Fed"
"310",102,40,21,0,9.41,7,7.44,49,7.44,7,9.41,49,159.1249,3.3195,3.8435,0,1,"Fed"
"311",102,41,23,0,12.53,7,3.5,49,10.68,7,5.47,49,162.9992,3.8877,4.4085,0,1,"Fed"
"312",102,42,45,0,13.22,21,4,84,11.27,21,6.26,84,167.4387,1.8564,2.3799,0,1,"Fed"
"313",102,43,38,0,8.23,21,7.44,63,6.5,21,9.41,63,169.8497,1.8133,2.3307,0,1,"Fed"
"314",102,44,33,0,8.23,21,7.44,42,6.5,21,9.41,42,172.2108,2.1553,2.6791,0,1,"Fed"
"315",102,45,29,0,8.55,7,3.5,70,7.29,7,5.47,70,174.9211,1.9337,2.4473,1,1,"Fed"
"316",102,46,40,1,13.35,21,4,63,11.38,21,6.26,63,177.3984,1.2478,1.765,0,1,"Fed"
"317",102,47,22,1,14.84,7,1.53,49,12.93,7,3.5,49,179.2109,2.0362,2.5466,1,1,"Fed"
"318",102,48,45,0,15.17,21,1.75,84,13.22,21,4,84,181.7882,3.0103,3.5272,1,1,"Fed"
"319",102,49,19,0,7.59,7,7.44,28,6,7,9.41,28,185.3465,6.3807,6.903,0,1,"Fed"
"320",102,50,2,1,12.53,0,3.5,21,10.68,0,5.47,21,192.28,2.135,2.6468,0,1,"Fed"
"321",102,51,43,0,7.12,21,7.44,84,5.63,21,9.41,84,194.9572,2.5224,3.0457,0,1,"Fed"
"322",102,52,3,1,8.23,0,7.44,21,6.5,0,9.41,21,198.0333,2.3737,2.8957,0,1,"Fed"
"323",102,53,12,0,8.15,0,7.44,63,6.44,0,9.41,63,200.9595,3.4149,3.926,1,1,"Fed"
"324",102,54,15,1,9.32,0,8.51,63,7.37,0,10.76,63,204.917,3.3317,3.8437,0,1,"Fed"
"325",102,55,7,0,14.38,0,1.53,42,12.53,0,3.5,42,208.8079,3.5437,4.0594,0,1,"Fed"
"326",102,56,41,1,5.29,21,11.38,84,3.39,21,13.35,84,212.8983,2.7901,3.311,0,1,"Fed"
"327",102,57,5,0,13.35,0,4,21,11.38,0,6.26,21,216.2404,3.5029,4.0267,0,1,"Fed"
"328",102,58,16,1,12.93,7,3.5,28,11.02,7,5.47,28,220.2973,2.6704,3.1955,1,1,"Fed"
"329",102,59,12,0,12.93,7,3.5,28,11.02,7,5.47,28,223.5232,2.4366,2.9621,1,1,"Fed"
"330",102,60,9,0,10.77,0,3.5,42,9.18,0,5.47,42,226.5161,3.1071,3.6268,1,1,"Fed"
"331",102,61,25,0,10.77,7,3.5,49,9.18,7,5.47,49,230.1742,3.6259,4.1421,1,1,"Fed"
"332",102,62,8,0,3.06,0,13.35,42,1.34,0,15.32,42,234.3474,5.9234,6.4377,0,1,"Fed"
"333",102,63,29,1,2.24,7,13.35,70,0.98,7,15.32,70,240.8324,3.3257,3.8435,0,1,"Fed"
"334",102,64,39,1,10.77,21,3.5,63,9.18,21,5.47,63,244.7066,2.7722,3.294,0,1,"Fed"
"335",102,65,43,1,10.1,21,3.5,84,8.61,21,5.47,84,248.0321,4.2405,4.7576,0,1,"Fed"
"336",102,66,17,1,12.53,7,3.5,28,10.68,7,5.47,28,252.8208,3.5551,4.0761,0,1,"Fed"
"337",102,67,27,0,11.56,7,3.5,70,9.85,7,5.47,70,256.9278,2.8649,3.3775,0,1,"Fed"
"338",102,68,19,1,10.77,7,3.5,28,9.18,7,5.47,28,260.3365,3.6315,4.1421,0,1,"Fed"
"339",102,69,28,1,7.12,7,7.44,70,5.63,7,9.41,70,264.5099,3.547,4.0595,0,1,"Fed"
"340",102,70,38,1,11.67,21,3.5,63,9.95,21,5.47,63,268.6003,2.7913,3.3112,0,1,"Fed"
"341",102,71,25,0,2.83,7,13.35,49,1.24,7,15.32,49,271.9424,4.8304,5.3571,1,1,"Fed"
"342",102,72,42,1,11.56,21,3.5,84,9.85,21,5.47,84,277.3297,3.6508,4.1763,0,1,"Fed"
"343",102,73,35,0,9.41,21,8.51,42,7.44,21,10.76,42,281.5365,2.3319,2.8459,1,1,"Fed"
"344",102,74,37,0,12.53,21,3.5,63,10.68,21,5.47,63,284.413,3.648,4.1592,1,1,"Fed"
"345",102,75,38,1,13.39,21,1.53,63,11.67,21,3.5,63,288.6031,2.4256,2.9458,0,1,"Fed"
"346",102,76,44,0,6.03,21,7.44,84,4.76,21,9.41,84,291.5795,1.6735,2.1977,0,1,"Fed"
"347",102,77,28,1,10.1,7,3.5,70,8.61,7,5.47,70,293.8075,3.3323,3.8436,0,1,"Fed"
"348",102,78,36,1,3.39,21,13.35,63,1.48,21,15.32,63,297.6817,4.8229,5.34,0,1,"Fed"
"349",102,79,6,0,9.12,0,7.44,42,7.21,0,9.41,42,303.0524,3.3895,3.9093,0,1,"Fed"
"350",102,80,20,1,13.35,7,4,28,11.38,7,6.26,28,306.9931,3.8181,4.3421,0,1,"Fed"
"351",102,81,4,0,7.59,0,7.44,21,6,0,9.41,21,311.3661,3.8644,4.3758,0,1,"Fed"
"352",102,82,1,1,12.93,0,3.5,21,11.02,0,5.47,21,315.7724,1.5551,2.0811,1,1,"Fed"
"353",102,83,21,0,13.35,7,3.5,49,11.38,7,5.47,49,317.8841,3.3337,3.8599,0,1,"Fed"
"354",102,84,39,0,12.36,21,1.53,63,10.77,21,3.5,63,321.775,5.21,5.7223,0,1,"Fed"
"355",102,85,14,0,9.81,0,1.53,63,8.55,0,3.5,63,327.5281,7.5752,8.0997,1,1,"Fed"
"356",102,86,18,1,13.39,7,1.53,28,11.67,7,3.5,28,335.6589,7.935,8.4488,0,1,"Fed"
"357",102,87,44,1,8.55,21,3.5,84,7.29,21,5.47,84,344.1389,4.9886,5.5064,0,1,"Fed"
"358",102,88,34,1,10.77,21,3.5,42,9.18,21,5.47,42,349.6758,4.0672,4.5921,1,1,"Fed"
"359",102,89,17,0,14.38,7,1.53,28,12.53,7,3.5,28,354.2981,2.7412,3.2618,0,1,"Fed"
"360",102,90,15,1,13.22,0,4,63,11.27,0,6.26,63,357.5905,6.0416,6.5542,0,1,"Fed"
"361",102,91,34,0,2.83,21,13.35,42,1.24,21,15.32,42,364.175,5.689,6.2049,0,1,"Fed"
"362",102,92,42,1,13.26,21,1.53,84,11.56,21,3.5,84,370.4103,6.3978,6.9199,0,1,"Fed"
"363",102,93,44,0,9.81,21,1.53,84,8.55,21,3.5,84,377.3604,2.8625,3.3785,1,1,"Fed"
"364",102,94,35,1,5.47,21,13.01,42,3.5,21,15.27,42,380.7692,5.9828,6.5041,1,1,"Fed"
"365",102,95,43,0,11.59,21,1.53,84,10.1,21,3.5,84,387.3038,6.6403,7.1513,1,1,"Fed"
"366",102,96,2,1,14.38,0,1.53,21,12.53,0,3.5,21,394.4869,1.6656,2.18,0,1,"Fed"
"367",102,97,31,1,5.3,21,11.38,42,3.39,21,13.35,42,396.6984,4.2446,4.758,0,1,"Fed"
"368",102,98,31,1,14.84,21,1.53,42,12.93,21,3.5,42,401.4871,2.8888,3.4114,0,1,"Fed"
"369",102,99,1,0,3.39,0,13.35,21,1.48,0,15.32,21,404.9289,3.511,4.0266,0,1,"Fed"
"370",102,100,11,1,12.91,0,3.5,63,11.01,0,5.47,63,408.986,3.91,4.4257,1,1,"Fed"
"371",102,101,24,1,8.23,7,7.44,49,6.5,7,9.41,49,413.4422,8.366,8.8817,1,1,"Fed"
"372",102,102,20,1,15.32,7,1.75,28,13.35,7,4,28,422.3544,3.8366,4.3591,1,1,"Fed"
"373",102,103,11,0,3.39,0,13.35,63,1.48,0,15.32,63,426.7442,1.7121,2.231,0,1,"Fed"
"374",102,104,6,0,12.93,0,3.5,42,11.02,0,5.47,42,429.0055,2.3464,2.8625,0,1,"Fed"
"375",102,105,5,1,15.32,0,1.75,21,13.35,0,4,21,431.8987,1.1969,1.7145,0,1,"Fed"
"376",102,106,4,0,10.77,0,3.5,21,9.18,0,5.47,21,433.6446,4.0354,4.5587,1,1,"Fed"
"377",102,107,9,1,2.83,0,13.35,42,1.24,0,15.32,42,438.2338,2.3099,2.83,1,1,"Fed"
"378",102,108,26,1,12.91,7,3.5,70,11.01,7,5.47,70,441.0937,2.1935,2.713,1,1,"Fed"
"379",102,109,10,1,13.35,0,4,42,11.38,0,6.26,42,443.8372,1.0662,1.5822,0,1,"Fed"
"380",102,110,27,0,13.26,7,1.53,70,11.56,7,3.5,70,445.4501,1.3649,1.8808,0,1,"Fed"
"381",102,111,16,0,3.39,7,13.35,28,1.48,7,15.32,28,447.3622,2.3979,2.9127,1,1,"Fed"
"382",102,112,19,1,12.36,7,1.53,28,10.77,7,3.5,28,450.3053,4.6863,5.2065,0,1,"Fed"
"383",102,113,30,1,13.22,7,4,70,11.27,7,6.26,70,455.543,4.8492,5.3735,0,1,"Fed"
"384",102,114,12,0,3.03,0,13.35,63,1.33,0,15.32,63,460.9467,1.6125,2.1308,1,1,"Fed"
"385",102,115,35,1,3.5,21,15.27,42,1.53,21,17.52,42,463.1085,2.0031,2.5301,1,1,"Fed"
"386",102,116,6,1,14.84,0,1.53,42,12.93,0,3.5,42,465.6688,1.1869,1.6983,0,1,"Fed"
"387",102,117,37,1,3.29,21,13.35,63,1.44,21,15.32,63,467.3984,2.2332,2.7459,1,1,"Fed"
"388",102,118,23,0,14.38,7,1.53,49,12.53,7,3.5,49,470.1752,2.4249,2.9457,0,1,"Fed"
"389",102,119,32,0,3.29,21,13.35,42,1.44,21,15.32,42,473.1515,1.6725,2.1978,1,1,"Fed"
"390",102,120,10,1,15.32,0,1.75,42,13.35,0,4,42,475.3796,2.0044,2.5293,0,1,"Fed"
"391",102,121,26,1,3.39,7,13.35,70,1.48,7,15.32,70,477.9401,3.0352,3.5611,1,1,"Fed"
"392",102,122,21,0,15.32,7,1.53,49,13.35,7,3.5,49,481.5317,1.6363,2.1466,0,1,"Fed"
"393",102,123,30,1,15.17,7,1.75,70,13.22,7,4,70,483.7099,1.779,2.2967,0,1,"Fed"
"394",102,124,4,1,2.83,0,13.35,21,1.24,0,15.32,21,486.0378,4.4024,4.9237,1,1,"Fed"
"395",102,125,24,0,4.78,7,11.38,49,3.06,7,13.35,49,490.9928,4.0783,4.5913,1,1,"Fed"
"396",102,126,3,0,11.67,0,3.5,21,9.95,0,5.47,21,495.6152,3.2166,3.7441,0,1,"Fed"
"397",102,127,33,0,11.67,21,3.5,42,9.95,21,5.47,42,499.3896,3.7066,4.226,0,1,"Fed"
"398",102,128,28,1,11.59,7,1.53,70,10.1,7,3.5,70,503.6463,4.4659,4.9914,0,1,"Fed"
"399",102,129,41,1,14.82,21,1.53,84,12.91,21,3.5,84,508.6678,2.6285,3.1454,0,1,"Fed"
"400",102,130,24,0,3.06,7,13.35,49,1.34,7,15.32,49,511.8436,4.0442,4.5587,1,1,"Fed"
"401",102,131,40,0,15.32,21,1.75,63,13.35,21,4,63,516.4328,3.3432,3.8605,0,1,"Fed"
"402",102,132,33,1,13.39,21,1.53,42,11.67,21,3.5,42,520.3236,6.1317,6.654,0,1,"Fed"
"403",102,133,3,0,13.39,0,1.53,21,11.67,0,3.5,21,527.0079,1.2802,1.7976,0,1,"Fed"
"404",102,134,15,0,15.17,0,1.75,63,13.22,0,4,63,528.8369,1.3231,1.8481,0,1,"Fed"
"405",102,135,13,1,11.59,0,1.53,63,10.1,0,3.5,63,530.7157,3.3232,3.843,0,1,"Fed"
"406",102,1,37,1,8.83,21,7.44,63,6.98,21,9.41,63,2.128,3.4988,4.07,1,2,"Fast"
"407",102,2,29,0,6.03,7,7.44,70,4.76,7,9.41,70,6.235,4.0259,4.5423,1,2,"Fast"
"408",102,3,33,0,8.23,21,7.44,42,6.5,21,9.41,42,10.8075,4.0236,4.5418,1,2,"Fast"
"409",102,4,44,1,6.03,21,7.44,84,4.76,21,9.41,84,15.3801,2.9702,3.494,0,2,"Fast"
"410",102,5,40,0,9.41,21,8.51,63,7.44,21,10.76,63,18.905,5.1603,5.6726,0,2,"Fast"
"411",102,6,23,1,8.83,7,7.44,49,6.98,7,9.41,49,24.6083,4.5375,5.0566,0,2,"Fast"
"412",102,7,15,1,9.32,0,8.51,63,7.37,0,10.76,63,29.713,1.7854,2.2966,0,2,"Fast"
"413",102,8,16,1,9.12,7,7.44,28,7.21,7,9.41,28,32.0408,5.2535,5.7724,0,2,"Fast"
"414",102,9,3,0,8.23,0,7.44,21,6.5,0,9.41,21,37.8437,2.8506,3.3611,1,2,"Fast"
"415",102,10,34,0,7.59,21,7.44,42,6,21,9.41,42,41.2357,3.9852,4.5083,1,2,"Fast"
"416",102,11,21,0,9.41,7,7.44,49,7.44,7,9.41,49,45.7751,4.5037,5.0242,0,2,"Fast"
"417",102,12,19,0,7.59,7,7.44,28,6,7,9.41,28,50.8299,5.1738,5.6892,0,2,"Fast"
"418",102,13,3,1,7.59,7,7.44,28,6,7,9.41,28,56.5495,1.5436,2.0646,0,2,"Fast"
"419",102,14,19,1,10.77,7,3.5,28,9.18,7,5.47,28,58.6614,2.7509,3.2609,0,2,"Fast"
"420",102,15,23,0,12.53,7,3.5,49,10.68,7,5.47,49,61.9537,1.5469,2.0639,1,2,"Fast"
"421",102,16,9,1,7.59,0,7.44,42,6,0,9.41,42,64.0486,2.1717,2.6964,0,2,"Fast"
"422",102,17,36,1,9.12,21,7.44,63,7.21,21,9.41,63,66.7756,3.663,4.1761,0,2,"Fast"
"423",102,18,20,1,9.41,7,8.51,28,7.44,7,10.76,28,70.9824,2.6879,3.2112,0,2,"Fast"
"424",102,19,37,1,5.14,21,11.38,63,3.29,21,13.35,63,74.2247,4.2682,4.7915,1,2,"Fast"
"425",102,20,13,0,7.12,0,7.44,63,5.63,0,9.41,63,79.0466,1.6466,2.1645,0,2,"Fast"
"426",102,21,43,0,7.12,21,7.44,84,5.63,21,9.41,84,81.2414,4.1835,4.7082,1,2,"Fast"
"427",102,22,29,0,3.5,7,11.38,70,2.24,7,13.35,70,85.9803,3.3376,3.8603,1,2,"Fast"
"428",102,23,19,1,12.36,7,1.53,28,10.77,7,3.5,28,89.8878,2.5254,3.0449,0,2,"Fast"
"429",102,24,25,0,7.59,7,7.44,49,6,7,9.41,49,92.9639,6.7486,7.2685,0,2,"Fast"
"430",102,25,2,1,8.83,0,7.44,21,6.98,0,9.41,21,100.2634,1.1213,1.6321,0,2,"Fast"
"431",102,26,10,0,9.41,0,8.51,42,7.44,0,10.76,42,101.9261,1.2825,1.7976,0,2,"Fast"
"432",102,27,38,0,8.23,21,7.44,63,6.5,21,9.41,63,103.7551,1.5574,2.0812,1,2,"Fast"
"433",102,28,15,0,13.22,0,4,63,11.27,0,6.26,63,105.8668,1.3093,1.8314,0,2,"Fast"
"434",102,29,18,0,8.23,7,7.44,28,6.5,7,9.41,28,107.7291,1.5513,2.0643,0,2,"Fast"
"435",102,30,31,0,9.12,21,7.44,42,7.21,21,9.41,42,109.8242,2.4485,2.9623,1,2,"Fast"
"436",102,31,1,1,9.12,0,7.44,21,7.21,0,9.41,21,112.8171,1.68,2.1975,1,2,"Fast"
"437",102,32,39,1,7.59,21,7.44,63,6,21,9.41,63,115.0451,4.6585,5.1729,1,2,"Fast"
"438",102,33,12,0,8.15,0,7.44,63,6.44,0,9.41,63,120.2496,1.7906,2.3136,0,2,"Fast"
"439",102,34,17,1,8.83,7,7.44,28,6.98,7,9.41,28,122.594,3.7926,4.3091,0,2,"Fast"
"440",102,35,42,0,8.15,21,7.44,84,6.44,21,9.41,84,126.9337,1.3646,1.8816,1,2,"Fast"
"441",102,36,16,0,12.93,7,3.5,28,11.02,7,5.47,28,128.846,1.4357,1.948,0,2,"Fast"
"442",102,37,27,1,8.15,7,7.44,70,6.44,7,9.41,70,130.8247,1.3862,1.8975,1,2,"Fast"
"443",102,38,22,0,9.12,7,7.44,49,7.21,7,9.41,49,132.7534,2.6569,3.1785,1,2,"Fast"
"444",102,39,22,1,5.3,7,11.38,49,3.39,7,13.35,49,135.9625,1.6245,2.1478,0,2,"Fast"
"445",102,40,42,0,4.74,21,11.38,84,3.03,21,13.35,84,138.1407,6.0691,6.5869,1,2,"Fast"
"446",102,41,13,0,10.1,0,3.5,63,8.61,0,5.47,63,144.7585,1.0277,1.5489,0,2,"Fast"
"447",102,42,44,0,8.55,21,3.5,84,7.29,21,5.47,84,146.3381,2.1199,2.6298,1,2,"Fast"
"448",102,43,35,0,9.41,21,8.51,42,7.44,21,10.76,42,148.9985,7.4333,7.9502,1,2,"Fast"
"449",102,44,38,1,4.78,21,11.38,63,3.06,21,13.35,63,156.9797,1.7638,2.2807,1,2,"Fast"
"450",102,45,45,1,9.32,21,8.51,84,7.37,21,10.76,84,159.2909,4.7999,5.3225,1,2,"Fast"
"451",102,46,6,1,9.12,0,7.44,42,7.21,0,9.41,42,164.6449,1.0138,1.5319,0,2,"Fast"
"452",102,47,8,1,8.23,0,7.44,42,6.5,0,9.41,42,166.2079,1.0009,1.5157,0,2,"Fast"
"453",102,48,4,1,7.59,0,7.44,21,6,0,9.41,21,167.7542,1.0015,1.5157,0,2,"Fast"
"454",102,49,39,1,4.41,21,11.38,63,2.83,21,13.35,63,169.3006,1.6851,2.1976,1,2,"Fast"
"455",102,50,21,1,13.35,7,3.5,49,11.38,7,5.47,49,171.5286,2.5061,3.029,0,2,"Fast"
"456",102,51,4,0,10.77,0,3.5,21,9.18,0,5.47,21,174.5881,1.0014,1.515,0,2,"Fast"
"457",102,52,9,1,10.77,0,3.5,42,9.18,0,5.47,42,176.1344,1.635,2.1472,0,2,"Fast"
"458",102,53,30,1,9.32,7,8.51,70,7.37,7,10.76,70,178.3127,2.3288,2.8456,0,2,"Fast"
"459",102,54,33,1,4.78,21,11.38,42,3.06,21,13.35,42,181.1893,5.9756,6.4872,1,2,"Fast"
"460",102,55,41,0,9.1,21,7.44,84,7.2,21,9.41,84,187.7072,4.5698,5.0908,1,2,"Fast"
"461",102,56,3,1,13.39,0,1.53,21,11.67,0,3.5,21,192.8451,1.2955,1.815,0,2,"Fast"
"462",102,57,9,1,12.36,0,1.53,42,10.77,0,3.5,42,194.6908,1.0179,1.5323,0,2,"Fast"
"463",102,58,41,1,5.29,21,11.38,84,3.39,21,13.35,84,196.2537,1.7908,2.3135,1,2,"Fast"
"464",102,59,45,0,5.42,21,13.01,84,3.47,21,15.27,84,198.5981,1.4938,2.0148,1,2,"Fast"
"465",102,60,7,0,8.83,0,7.44,42,6.98,0,9.41,42,200.6434,1.6325,2.1473,0,2,"Fast"
"466",102,61,37,0,3.29,21,13.35,63,1.44,21,15.32,63,202.8382,1.8784,2.3972,1,2,"Fast"
"467",102,62,25,0,10.77,7,3.5,49,9.18,7,5.47,49,205.2658,2.8909,3.4108,0,2,"Fast"
"468",102,63,15,1,15.17,0,1.75,63,13.22,0,4,63,208.7077,1.497,2.014,0,2,"Fast"
"469",102,64,22,0,14.84,7,1.53,49,12.93,7,3.5,49,210.7529,1.876,2.3971,0,2,"Fast"
"470",102,65,11,0,9.1,0,7.44,63,7.2,0,9.41,63,213.1805,1.7596,2.2807,0,2,"Fast"
"471",102,66,21,1,15.32,7,1.53,49,13.35,7,3.5,49,215.4918,5.0164,5.54,0,2,"Fast"
"472",102,67,6,0,12.93,0,3.5,42,11.02,0,5.47,42,221.062,4.2421,4.7581,0,2,"Fast"
"473",102,68,14,0,6.03,0,7.44,63,4.76,0,9.41,63,225.8506,8.0203,8.5325,0,2,"Fast"
"474",102,69,26,0,9.1,7,7.44,70,7.2,7,9.41,70,234.4138,1.4098,1.9314,0,2,"Fast"
"475",102,70,1,1,9.1,7,7.44,70,7.2,7,9.41,70,236.3758,1.095,1.6155,0,2,"Fast"
"476",102,71,38,0,3.06,21,13.35,63,1.34,21,15.32,63,238.022,1.522,2.0479,1,2,"Fast"
"477",102,72,28,0,7.12,7,7.44,70,5.63,7,9.41,70,240.1003,7.1667,7.684,0,2,"Fast"
"478",102,73,4,1,12.36,0,1.53,21,10.77,0,3.5,21,247.8155,1.1958,1.7148,0,2,"Fast"
"479",102,74,43,0,4.14,21,11.38,84,2.65,21,13.35,84,249.5614,1.3466,1.8641,1,2,"Fast"
"480",102,75,31,1,5.3,21,11.38,42,3.39,21,13.35,42,251.457,1.8661,2.38,1,2,"Fast"
"481",102,76,34,1,4.41,21,11.38,42,2.83,21,13.35,42,253.868,3.0479,3.5609,1,2,"Fast"
"482",102,77,12,1,11.56,0,3.5,63,9.85,0,5.47,63,257.4595,3.1116,3.6275,0,2,"Fast"
"483",102,78,8,0,11.67,0,3.5,42,9.95,0,5.47,42,261.1175,1.1178,1.6323,0,2,"Fast"
"484",102,79,42,0,3.03,21,13.35,84,1.33,21,15.32,84,262.7803,1.3113,1.8311,1,2,"Fast"
"485",102,80,2,1,12.53,0,3.5,21,10.68,0,5.47,21,264.6426,3.2888,3.8099,0,2,"Fast"
"486",102,81,2,1,14.38,0,1.53,21,12.53,0,3.5,21,268.4835,1.2244,1.7485,0,2,"Fast"
"487",102,82,31,0,3.39,21,13.35,42,1.48,21,15.32,42,270.2791,1.6037,2.1146,1,2,"Fast"
"488",102,83,27,1,4.74,7,11.38,70,3.03,7,13.35,70,272.4242,2.075,2.5967,1,2,"Fast"
"489",102,84,35,1,5.47,21,13.01,42,3.5,21,15.27,42,275.0514,1.5596,2.0815,0,2,"Fast"
"490",102,85,17,1,12.53,7,3.5,28,10.68,7,5.47,28,277.163,1.9601,2.48,0,2,"Fast"
"491",102,86,7,1,12.53,0,3.5,42,10.68,0,5.47,42,279.6738,1.2248,1.7486,0,2,"Fast"
"492",102,87,32,0,8.83,21,7.44,42,6.98,21,9.41,42,281.4529,1.6788,2.1975,1,2,"Fast"
"493",102,88,20,0,13.35,7,4,28,11.38,7,6.26,28,283.681,2.1381,2.6634,0,2,"Fast"
"494",102,89,40,0,13.35,21,4,63,11.38,21,6.26,63,286.3747,2.0204,2.5465,1,2,"Fast"
"495",102,90,32,1,5.14,21,11.38,42,3.29,21,13.35,42,288.9519,1.5639,2.0809,1,2,"Fast"
"496",102,91,30,0,13.22,7,4,70,11.27,7,6.26,70,291.0636,3.7009,4.2255,0,2,"Fast"
"497",102,92,25,0,12.36,7,1.53,49,10.77,7,3.5,49,295.3202,1.437,1.9479,0,2,"Fast"
"498",102,93,13,1,11.59,0,1.53,63,10.1,0,3.5,63,297.2988,1.162,1.6825,0,2,"Fast"
"499",102,94,32,1,3.29,21,13.35,42,1.44,21,15.32,42,299.0114,2.5059,3.0291,1,2,"Fast"
"500",102,95,35,0,15.32,21,1.75,42,13.35,21,4,42,302.071,1.6373,2.1476,1,2,"Fast"
"501",102,96,28,1,10.1,7,3.5,70,8.61,7,5.47,70,304.2492,1.2122,1.7314,1,2,"Fast"
"502",102,97,23,1,3.29,7,13.35,49,1.44,7,15.32,49,306.0117,1.9127,2.4304,0,2,"Fast"
"503",102,98,43,1,2.65,21,13.35,84,1.16,21,15.32,84,308.4726,2.6929,3.211,1,2,"Fast"
"504",102,99,39,0,2.83,21,13.35,63,1.24,21,15.32,63,311.7149,4.4515,4.9741,1,2,"Fast"
"505",102,100,36,1,12.93,21,3.5,63,11.02,21,5.47,63,316.7198,6.3032,6.8202,0,2,"Fast"
"506",102,101,36,0,14.84,21,1.53,63,12.93,21,3.5,63,323.5703,5.882,6.4039,0,2,"Fast"
"507",102,102,14,0,8.55,0,3.5,63,7.29,0,5.47,63,330.005,3.4771,3.9933,0,2,"Fast"
"508",102,103,8,0,13.39,0,1.53,42,11.67,0,3.5,42,334.029,1.2601,1.7821,0,2,"Fast"
"509",102,104,5,1,9.41,0,8.51,21,7.44,0,10.76,21,335.8414,1.016,1.5328,0,2,"Fast"
"510",102,105,1,1,14.84,0,1.53,21,12.93,0,3.5,21,337.4044,1.0769,1.599,0,2,"Fast"
"511",102,106,12,0,13.26,0,1.53,63,11.56,0,3.5,63,339.0339,1.0016,1.5151,0,2,"Fast"
"512",102,107,30,1,15.17,7,1.75,70,13.22,7,4,70,340.5802,4.0348,4.5588,0,2,"Fast"
"513",102,108,6,0,14.84,0,1.53,42,12.93,0,3.5,42,345.1694,1.294,1.8147,0,2,"Fast"
"514",102,109,29,0,2.24,7,13.35,70,0.98,7,15.32,70,347.015,2.9681,3.4946,1,2,"Fast"
"515",102,110,45,1,3.47,21,15.27,84,1.52,21,17.52,84,350.5401,2.9396,3.4613,1,2,"Fast"
"516",102,111,27,0,3.03,7,13.35,70,1.33,7,15.32,70,354.0318,1.1841,1.6986,1,2,"Fast"
"517",102,112,10,1,13.35,0,4,42,11.38,0,6.26,42,355.7611,2.1987,2.7129,0,2,"Fast"
"518",102,113,34,1,2.83,21,13.35,42,1.24,21,15.32,42,358.5047,2.5592,3.0789,1,2,"Fast"
"519",102,114,28,1,2.65,7,13.35,70,1.16,7,15.32,70,361.614,1.665,2.1813,1,2,"Fast"
"520",102,115,24,0,8.23,7,7.44,49,6.5,7,9.41,49,363.8254,5.0995,5.6229,0,2,"Fast"
"521",102,116,10,0,15.32,0,1.75,42,13.35,0,4,42,369.4788,2.6855,3.212,0,2,"Fast"
"522",102,117,24,0,11.67,7,3.5,49,9.95,7,5.47,49,372.7211,4.9808,5.5064,0,2,"Fast"
"523",102,118,18,0,11.67,7,3.5,28,9.95,7,5.47,28,378.2581,1.8355,2.3471,0,2,"Fast"
"524",102,119,24,0,13.39,7,1.53,49,11.67,7,3.5,49,380.6358,1.0006,1.5155,0,2,"Fast"
"525",102,120,16,1,14.84,7,1.53,28,12.93,7,3.5,28,382.1822,2.7041,3.2275,0,2,"Fast"
"526",102,121,41,1,3.39,21,13.35,84,1.48,21,15.32,84,385.4412,2.8368,3.3615,1,2,"Fast"
"527",102,122,11,1,12.91,0,3.5,63,11.01,0,5.47,63,388.8332,1.1971,1.7143,0,2,"Fast"
"528",102,123,44,1,2.24,21,13.35,84,0.98,21,15.32,84,390.579,2.1466,2.6625,1,2,"Fast"
"529",102,124,26,1,12.91,7,3.5,70,11.01,7,5.47,70,393.2727,2.7097,3.2284,0,2,"Fast"
"530",102,125,40,0,3.5,21,15.27,63,1.53,21,17.52,63,396.5317,1.9379,2.4629,1,2,"Fast"
"531",102,126,5,1,13.35,0,4,21,11.38,0,6.26,21,399.0258,1.1479,1.6671,0,2,"Fast"
"532",102,127,7,0,14.38,0,1.53,42,12.53,0,3.5,42,400.7217,1.0014,1.5148,0,2,"Fast"
"533",102,128,33,0,3.06,21,13.35,42,1.34,21,15.32,42,402.2697,1.6566,2.1787,1,2,"Fast"
"534",102,129,26,0,14.82,7,1.53,70,12.91,7,3.5,70,404.4795,1.918,2.4303,0,2,"Fast"
"535",102,130,17,0,14.38,7,1.53,28,12.53,7,3.5,28,406.9405,1.2894,1.8157,0,2,"Fast"
"536",102,131,18,1,13.39,7,1.53,28,11.67,7,3.5,28,408.7861,1.3395,1.8654,0,2,"Fast"
"537",102,132,11,0,14.82,0,1.53,63,12.91,0,3.5,63,410.6817,1.0011,1.5155,0,2,"Fast"
"538",102,133,20,1,15.32,7,1.75,28,13.35,7,4,28,412.228,1.5776,2.097,0,2,"Fast"
"539",102,134,14,1,9.81,0,1.53,63,8.55,0,3.5,63,414.3563,2.9541,3.4778,0,2,"Fast"
"540",102,135,5,0,15.32,0,1.75,21,13.35,0,4,21,417.8647,3.2456,3.7599,0,2,"Fast"
"541",103,1,5,0,9.41,0,8.51,21,7.44,0,10.76,21,2.1285,8.4057,8.9938,1,1,"Fed"
"542",103,2,39,1,7.59,21,7.44,63,6,21,9.41,63,11.1738,9.5089,10.0299,1,1,"Fed"
"543",103,3,11,0,9.1,0,7.44,63,7.2,0,9.41,63,21.25,6.8129,7.3361,0,1,"Fed"
"544",103,4,34,1,7.59,21,7.44,42,6,21,9.41,42,28.6161,6.0624,6.5875,0,1,"Fed"
"545",103,5,12,0,8.15,0,7.44,63,6.44,0,9.41,63,35.2338,2.8451,3.3616,0,1,"Fed"
"546",103,6,42,1,8.15,21,7.44,84,6.44,21,9.41,84,38.6258,5.0857,5.6063,0,1,"Fed"
"547",103,7,13,1,7.12,0,7.44,63,5.63,0,9.41,63,44.2625,3.1859,3.7109,0,1,"Fed"
"548",103,8,2,1,8.83,0,7.44,21,6.98,0,9.41,21,48.0037,1.3332,1.8485,0,1,"Fed"
"549",103,9,44,1,6.03,21,7.44,84,4.76,21,9.41,84,49.8826,1.4133,1.9317,0,1,"Fed"
"550",103,10,43,0,7.12,21,7.44,84,5.63,21,9.41,84,51.8446,1.7631,2.2809,0,1,"Fed"
"551",103,11,42,0,11.56,21,3.5,84,9.85,21,5.47,84,54.1725,1.0018,1.5161,0,1,"Fed"
"552",103,12,28,0,7.12,7,7.44,70,5.63,7,9.41,70,55.7189,10.0206,10.5447,0,1,"Fed"
"553",103,13,9,0,7.59,0,7.44,42,6,0,9.41,42,66.2939,2.1175,2.6298,0,1,"Fed"
"554",103,14,10,1,9.41,0,8.51,42,7.44,0,10.76,42,68.9543,4.7347,5.2573,0,1,"Fed"
"555",103,15,24,1,8.23,7,7.44,49,6.5,7,9.41,49,74.2419,1.1917,1.7155,0,1,"Fed"
"556",103,16,17,1,8.83,7,7.44,28,6.98,7,9.41,28,75.9877,4.1563,4.6749,0,1,"Fed"
"557",103,17,20,0,9.41,7,8.51,28,7.44,7,10.76,28,80.6933,1.363,1.8819,0,1,"Fed"
"558",103,18,18,1,8.23,7,7.44,28,6.5,7,9.41,28,82.6055,1.4353,1.9484,0,1,"Fed"
"559",103,19,28,0,10.1,7,3.5,70,8.61,7,5.47,70,84.5841,1.1047,1.6157,0,1,"Fed"
"560",103,20,31,1,9.12,21,7.44,42,7.21,21,9.41,42,86.2303,1.0006,1.5158,0,1,"Fed"
"561",103,21,36,0,9.12,21,7.44,63,7.21,21,9.41,63,87.7766,1.1922,1.7152,0,1,"Fed"
"562",103,22,44,0,8.55,21,3.5,84,7.29,21,5.47,84,89.5225,1.1351,1.6491,0,1,"Fed"
"563",103,23,42,1,13.26,21,1.53,84,11.56,21,3.5,84,91.2185,1.2539,1.7651,0,1,"Fed"
"564",103,24,25,0,7.59,7,7.44,49,6,7,9.41,49,93.0143,1.0671,1.5823,0,1,"Fed"
"565",103,25,11,1,12.91,0,3.5,63,11.01,0,5.47,63,94.6438,1.0017,1.5161,0,1,"Fed"
"566",103,26,2,0,12.53,0,3.5,21,10.68,0,5.47,21,96.1901,1.1788,1.699,0,1,"Fed"
"567",103,27,37,1,8.83,21,7.44,63,6.98,21,9.41,63,97.9194,1.2413,1.7655,0,1,"Fed"
"568",103,28,27,1,8.15,7,7.44,70,6.44,7,9.41,70,99.7151,1.1654,1.6824,0,1,"Fed"
"569",103,29,37,1,12.53,21,3.5,63,10.68,21,5.47,63,101.4278,1.117,1.6323,0,1,"Fed"
"570",103,30,26,1,9.1,7,7.44,70,7.2,7,9.41,70,103.0905,1.0017,1.5161,0,1,"Fed"
"571",103,31,31,0,12.93,21,3.5,42,11.02,21,5.47,42,104.6369,1.0201,1.5327,0,1,"Fed"
"572",103,32,14,1,6.03,0,7.44,63,4.76,0,9.41,63,106.1997,1.0016,1.5162,0,1,"Fed"
"573",103,33,18,1,11.67,7,3.5,28,9.95,7,5.47,28,107.7462,1.0547,1.5661,0,1,"Fed"
"574",103,34,35,0,9.41,21,8.51,42,7.44,21,10.76,42,109.3424,1.0012,1.5161,0,1,"Fed"
"575",103,35,38,0,8.23,21,7.44,63,6.5,21,9.41,63,110.8888,1.0017,1.5161,0,1,"Fed"
"576",103,36,6,1,9.12,0,7.44,42,7.21,0,9.41,42,112.4352,1.0017,1.5161,0,1,"Fed"
"577",103,37,10,0,13.35,0,4,42,11.38,0,6.26,42,113.9815,1.0436,1.5658,0,1,"Fed"
"578",103,38,21,1,9.41,7,7.44,49,7.44,7,9.41,49,115.5778,1.7747,2.2974,0,1,"Fed"
"579",103,39,20,1,13.35,7,4,28,11.38,7,6.26,28,117.9056,1.047,1.5659,0,1,"Fed"
"580",103,40,34,0,10.77,21,3.5,42,9.18,21,5.47,42,119.5018,1.0108,1.5325,0,1,"Fed"
"581",103,41,24,0,11.67,7,3.5,49,9.95,7,5.47,49,121.0648,1.0017,1.5161,0,1,"Fed"
"582",103,42,45,1,9.32,21,8.51,84,7.37,21,10.76,84,122.6112,1.0777,1.5993,0,1,"Fed"
"583",103,43,33,0,8.23,21,7.44,42,6.5,21,9.41,42,124.2407,1.0017,1.5161,0,1,"Fed"
"584",103,44,24,0,13.39,7,1.53,49,11.67,7,3.5,49,125.787,1.1903,1.7157,0,1,"Fed"
"585",103,45,6,1,12.93,0,3.5,42,11.02,0,5.47,42,127.5327,1.0017,1.5156,0,1,"Fed"
"586",103,46,12,1,11.56,0,3.5,63,9.85,0,5.47,63,129.0793,1.0815,1.5988,0,1,"Fed"
"587",103,47,30,0,9.32,7,8.51,70,7.37,7,10.76,70,130.7088,1.012,1.5328,0,1,"Fed"
"588",103,48,38,1,11.67,21,3.5,63,9.95,21,5.47,63,132.2717,1.0017,1.516,0,1,"Fed"
"589",103,49,13,1,10.1,0,3.5,63,8.61,0,5.47,63,133.8181,1.0312,1.5492,0,1,"Fed"
"590",103,50,27,1,11.56,7,3.5,70,9.85,7,5.47,70,135.3976,1.0017,1.5162,0,1,"Fed"
"591",103,51,31,0,14.84,21,1.53,42,12.93,21,3.5,42,136.9441,1.0017,1.5161,0,1,"Fed"
"592",103,52,16,1,9.12,7,7.44,28,7.21,7,9.41,28,138.4904,1.9586,2.4806,0,1,"Fed"
"593",103,53,30,1,13.22,7,4,70,11.27,7,6.26,70,141.0012,1.0009,1.516,0,1,"Fed"
"594",103,54,3,0,8.23,0,7.44,21,6.5,0,9.41,21,142.5475,1.0017,1.516,0,1,"Fed"
"595",103,55,29,1,6.03,7,7.44,70,4.76,7,9.41,70,144.0939,1.0017,1.516,0,1,"Fed"
"596",103,56,29,0,8.55,7,3.5,70,7.29,7,5.47,70,145.6402,1.0407,1.5658,0,1,"Fed"
"597",103,57,26,0,12.91,7,3.5,70,11.01,7,5.47,70,147.2365,1.341,1.8653,0,1,"Fed"
"598",103,58,14,1,8.55,0,3.5,63,7.29,0,5.47,63,149.132,1.0017,1.5161,0,1,"Fed"
"599",103,59,12,1,13.26,0,1.53,63,11.56,0,3.5,63,150.695,1.0017,1.5161,0,1,"Fed"
"600",103,60,9,0,10.77,0,3.5,42,9.18,0,5.47,42,152.2413,1.1518,1.6654,0,1,"Fed"
"601",103,61,7,1,8.83,0,7.44,42,6.98,0,9.41,42,153.9373,1.0017,1.5159,0,1,"Fed"
"602",103,62,43,1,10.1,21,3.5,84,8.61,21,5.47,84,155.4837,1.1257,1.6489,0,1,"Fed"
"603",103,63,32,1,8.83,21,7.44,42,6.98,21,9.41,42,157.1631,1.3743,1.8985,0,1,"Fed"
"604",103,64,8,1,8.23,0,7.44,42,6.5,0,9.41,42,159.0919,1.0294,1.5491,0,1,"Fed"
"605",103,65,4,1,7.59,0,7.44,21,6,0,9.41,21,160.6715,1.0017,1.5161,1,1,"Fed"
"606",103,66,19,1,7.59,7,7.44,28,6,7,9.41,28,162.2177,1.0017,1.5162,0,1,"Fed"
"607",103,67,39,0,4.41,21,11.38,63,2.83,21,13.35,63,163.7641,1.205,1.7323,0,1,"Fed"
"608",103,68,41,0,9.1,21,7.44,84,7.2,21,9.41,84,165.5267,1.0585,1.5823,0,1,"Fed"
"609",103,69,14,1,9.81,0,1.53,63,8.55,0,3.5,63,167.1396,1.0696,1.5822,0,1,"Fed"
"610",103,70,5,1,9.81,0,1.53,63,8.55,0,3.5,63,168.7524,1.0013,1.5163,0,1,"Fed"
"611",103,71,32,1,12.53,21,3.5,42,10.68,21,5.47,42,170.2988,1.0614,1.5823,0,1,"Fed"
"612",103,72,18,1,13.39,7,1.53,28,11.67,7,3.5,28,171.9116,1.0018,1.516,0,1,"Fed"
"613",103,73,22,1,9.12,7,7.44,49,7.21,7,9.41,49,173.458,1.0017,1.5161,0,1,"Fed"
"614",103,74,9,1,12.36,0,1.53,42,10.77,0,3.5,42,175.0043,1.0018,1.516,0,1,"Fed"
"615",103,75,30,1,15.17,7,1.75,70,13.22,7,4,70,176.5507,1.0017,1.5161,1,1,"Fed"
"616",103,76,38,1,13.39,21,1.53,63,11.67,21,3.5,63,178.0971,1.3842,1.8981,0,1,"Fed"
"617",103,77,45,0,13.22,21,4,84,11.27,21,6.26,84,180.0258,1.0017,1.516,0,1,"Fed"
"618",103,78,4,1,13.22,21,4,84,11.27,21,6.26,84,181.5722,1.0017,1.5161,0,1,"Fed"
"619",103,79,28,0,11.59,7,1.53,70,10.1,7,3.5,70,183.1185,1.0017,1.5161,0,1,"Fed"
"620",103,80,40,0,9.41,21,8.51,63,7.44,21,10.76,63,184.6649,1.0017,1.5159,0,1,"Fed"
"621",103,81,1,0,9.12,0,7.44,21,7.21,0,9.41,21,186.2113,1.0017,1.5152,0,1,"Fed"
"622",103,82,35,0,13.35,21,4,42,11.38,21,6.26,42,187.7576,1.0017,1.5152,0,1,"Fed"
"623",103,83,16,1,12.93,7,3.5,28,11.02,7,5.47,28,189.3039,1.2808,1.7988,0,1,"Fed"
"624",103,84,10,0,15.32,0,1.75,42,13.35,0,4,42,191.133,1.0017,1.5161,0,1,"Fed"
"625",103,85,34,0,12.36,21,1.53,42,10.77,21,3.5,42,192.6794,1.0173,1.5326,0,1,"Fed"
"626",103,86,26,1,14.82,7,1.53,70,12.91,7,3.5,70,194.2423,1.0017,1.5161,0,1,"Fed"
"627",103,87,36,0,12.93,21,3.5,63,11.02,21,5.47,63,195.7887,1.1322,1.6489,0,1,"Fed"
"628",103,88,37,0,14.38,21,1.53,63,12.53,21,3.5,63,197.4681,1.2928,1.8152,0,1,"Fed"
"629",103,89,19,0,10.77,7,3.5,28,9.18,7,5.47,28,199.3137,1.0954,1.6159,0,1,"Fed"
"630",103,90,29,0,9.81,7,1.53,70,8.55,7,3.5,70,200.9599,1.0011,1.5161,0,1,"Fed"
"631",103,91,23,0,8.83,7,7.44,49,6.98,7,9.41,49,202.5062,1.0011,1.5161,0,1,"Fed"
"632",103,92,27,1,13.26,7,1.53,70,11.56,7,3.5,70,204.0525,1.1727,1.6989,0,1,"Fed"
"633",103,93,32,0,14.38,21,1.53,42,12.53,21,3.5,42,205.7818,1.0423,1.5662,0,1,"Fed"
"634",103,94,22,0,12.93,7,3.5,49,11.02,7,5.47,49,207.378,1.0018,1.5161,0,1,"Fed"
"635",103,95,45,0,15.17,21,1.75,84,13.22,21,4,84,208.9243,1.0017,1.5162,0,1,"Fed"
"636",103,96,43,0,11.59,21,1.53,84,10.1,21,3.5,84,210.4707,1.0017,1.516,0,1,"Fed"
"637",103,97,21,0,13.35,7,3.5,49,11.38,7,5.47,49,212.0171,1.0017,1.5158,0,1,"Fed"
"638",103,98,7,0,12.53,0,3.5,42,10.68,0,5.47,42,213.5633,1.001,1.5161,0,1,"Fed"
"639",103,99,41,1,12.91,21,3.5,84,11.01,21,5.47,84,215.1098,1.0017,1.516,0,1,"Fed"
"640",103,100,35,1,15.32,21,1.75,42,13.35,21,4,42,216.6562,1.0565,1.583,0,1,"Fed"
"641",103,101,11,1,14.82,0,1.53,63,12.91,0,3.5,63,218.269,1.1005,1.6157,0,1,"Fed"
"642",103,102,22,0,14.84,7,1.53,49,12.93,7,3.5,49,219.9152,1.0142,1.5326,0,1,"Fed"
"643",103,103,7,1,14.38,0,1.53,42,12.53,0,3.5,42,221.4781,1.0017,1.5161,0,1,"Fed"
"644",103,104,41,1,14.82,21,1.53,84,12.91,21,3.5,84,223.0245,1.0083,1.5328,0,1,"Fed"
"645",103,105,25,1,10.77,7,3.5,49,9.18,7,5.47,49,224.5875,1.1486,1.6656,0,1,"Fed"
"646",103,106,8,0,11.67,0,3.5,42,9.95,0,5.47,42,226.2833,1.0017,1.5161,0,1,"Fed"
"647",103,107,3,1,11.67,0,3.5,21,9.95,0,5.47,21,227.8298,1.4834,1.9979,0,1,"Fed"
"648",103,108,3,1,13.39,0,1.53,21,11.67,0,3.5,21,229.8584,1.0302,1.5492,0,1,"Fed"
"649",103,109,44,0,9.81,21,1.53,84,8.55,21,3.5,84,231.438,1.0991,1.6157,0,1,"Fed"
"650",103,110,15,1,9.32,0,8.51,63,7.37,0,10.76,63,233.0841,1.093,1.6157,0,1,"Fed"
"651",103,111,5,1,15.32,0,1.75,21,13.35,0,4,21,234.7302,1.0228,1.5322,0,1,"Fed"
"652",103,112,21,0,15.32,7,1.53,49,13.35,7,3.5,49,236.2932,1.0017,1.5158,0,1,"Fed"
"653",103,113,23,1,12.53,7,3.5,49,10.68,7,5.47,49,237.8396,1.2092,1.7321,0,1,"Fed"
"654",103,114,20,0,15.32,7,1.75,28,13.35,7,4,28,239.6021,1.0017,1.5161,0,1,"Fed"
"655",103,115,15,0,13.22,0,4,63,11.27,0,6.26,63,241.1484,1.1885,1.6987,0,1,"Fed"
"656",103,116,40,0,13.35,21,4,63,11.38,21,6.26,63,242.8777,1.1391,1.6656,0,1,"Fed"
"657",103,117,1,0,12.93,0,3.5,21,11.02,0,5.47,21,244.5737,1.2269,1.7488,0,1,"Fed"
"658",103,118,13,1,11.59,0,1.53,63,10.1,0,3.5,63,246.3528,1.0016,1.5161,0,1,"Fed"
"659",103,119,6,0,14.84,0,1.53,42,12.93,0,3.5,42,247.8992,1.133,1.6489,0,1,"Fed"
"660",103,120,25,0,12.36,7,1.53,49,10.77,7,3.5,49,249.5786,1.0017,1.5159,0,1,"Fed"
"661",103,121,33,0,11.67,21,3.5,42,9.95,21,5.47,42,251.1249,1.0017,1.5159,0,1,"Fed"
"662",103,122,17,0,12.53,7,3.5,28,10.68,7,5.47,28,252.6713,1.0416,1.5657,0,1,"Fed"
"663",103,123,33,0,13.39,21,1.53,42,11.67,21,3.5,42,254.2675,1.1332,1.6487,0,1,"Fed"
"664",103,124,4,0,12.36,0,1.53,21,10.77,0,3.5,21,255.9469,1.0305,1.5492,0,1,"Fed"
"665",103,125,17,1,14.38,7,1.53,28,12.53,7,3.5,28,257.5265,1.0744,1.5991,0,1,"Fed"
"666",103,126,19,0,12.36,7,1.53,28,10.77,7,3.5,28,259.156,1.0692,1.5824,0,1,"Fed"
"667",103,127,15,0,15.17,0,1.75,63,13.22,0,4,63,260.7689,1.0017,1.5161,0,1,"Fed"
"668",103,128,8,0,13.39,0,1.53,42,11.67,0,3.5,42,262.3152,1.0017,1.5161,0,1,"Fed"
"669",103,129,39,1,12.36,21,1.53,63,10.77,21,3.5,63,263.8616,1.0017,1.516,0,1,"Fed"
"670",103,130,1,0,14.84,0,1.53,21,12.93,0,3.5,21,265.4078,1.0018,1.5161,0,1,"Fed"
"671",103,131,2,0,14.38,0,1.53,21,12.53,0,3.5,21,266.9543,1.5351,2.0479,0,1,"Fed"
"672",103,132,23,1,14.38,7,1.53,49,12.53,7,3.5,49,269.0327,1.0017,1.5161,0,1,"Fed"
"673",103,133,40,0,15.32,21,1.75,63,13.35,21,4,63,270.5791,1.2378,1.7483,0,1,"Fed"
"674",103,134,36,1,14.84,21,1.53,63,12.93,21,3.5,63,272.3582,1.0017,1.5161,0,1,"Fed"
"675",103,135,16,0,14.84,7,1.53,28,12.93,7,3.5,28,273.9046,1.0017,1.516,0,1,"Fed"
"676",103,1,42,1,8.15,21,7.44,84,6.44,21,9.41,84,2.1283,6.2662,6.8819,1,2,"Fast"
"677",103,2,14,1,6.03,0,7.44,63,4.76,0,9.41,63,9.062,8.7377,9.265,1,2,"Fast"
"678",103,3,33,0,8.23,21,7.44,42,6.5,21,9.41,42,18.3568,7.5851,8.101,1,2,"Fast"
"679",103,4,4,0,7.59,0,7.44,21,6,0,9.41,21,26.4876,6.325,6.8368,0,2,"Fast"
"680",103,5,13,0,7.12,0,7.44,63,5.63,0,9.41,63,33.3548,2.4169,2.9292,0,2,"Fast"
"681",103,6,36,1,9.12,21,7.44,63,7.21,21,9.41,63,36.3144,4.893,5.4069,0,2,"Fast"
"682",103,7,17,0,8.83,7,7.44,28,6.98,7,9.41,28,41.7516,2.9271,3.4447,0,2,"Fast"
"683",103,8,18,0,8.23,7,7.44,28,6.5,7,9.41,28,45.2268,3.2202,3.7441,0,2,"Fast"
"684",103,9,44,1,6.03,21,7.44,84,4.76,21,9.41,84,49.0012,1.4537,1.9646,0,2,"Fast"
"685",103,10,10,0,9.41,0,8.51,42,7.44,0,10.76,42,50.9965,4.3361,4.8583,0,2,"Fast"
"686",103,11,11,1,9.1,0,7.44,63,7.2,0,9.41,63,55.885,4.6769,5.1907,1,2,"Fast"
"687",103,12,27,1,8.15,7,7.44,70,6.44,7,9.41,70,61.106,4.082,4.6088,0,2,"Fast"
"688",103,13,38,0,8.23,21,7.44,63,6.5,21,9.41,63,65.7451,2.1404,2.6633,0,2,"Fast"
"689",103,14,37,1,8.83,21,7.44,63,6.98,21,9.41,63,68.4387,1.5026,2.0148,0,2,"Fast"
"690",103,15,3,0,8.23,0,7.44,21,6.5,0,9.41,21,70.4839,1.4885,2.0149,0,2,"Fast"
"691",103,16,45,1,9.32,21,8.51,84,7.37,21,10.76,84,72.5291,1.7162,2.231,0,2,"Fast"
"692",103,17,7,1,8.83,0,7.44,42,6.98,0,9.41,42,74.7904,3.2273,3.7438,0,2,"Fast"
"693",103,18,38,0,11.67,21,3.5,63,9.95,21,5.47,63,78.5815,2.6361,3.145,0,2,"Fast"
"694",103,19,6,0,9.12,0,7.44,42,7.21,0,9.41,42,81.7573,2.244,2.7628,0,2,"Fast"
"695",103,20,6,1,12.93,0,3.5,42,11.02,0,5.47,42,84.5674,1.0421,1.5659,0,2,"Fast"
"696",103,21,19,0,7.59,7,7.44,28,6,7,9.41,28,86.1636,1.6136,2.1313,0,2,"Fast"
"697",103,22,10,0,13.35,0,4,42,11.38,0,6.26,42,88.3252,1.0017,1.5158,0,2,"Fast"
"698",103,23,24,1,8.23,7,7.44,49,6.5,7,9.41,49,89.8715,1.0819,1.599,0,2,"Fast"
"699",103,24,40,1,9.41,21,8.51,63,7.44,21,10.76,63,91.501,1.0017,1.5151,0,2,"Fast"
"700",103,25,31,1,9.12,21,7.44,42,7.21,21,9.41,42,93.0474,1.1141,1.6325,0,2,"Fast"
"701",103,26,35,0,9.41,21,8.51,42,7.44,21,10.76,42,94.7101,1.099,1.6155,0,2,"Fast"
"702",103,27,6,1,14.84,0,1.53,42,12.93,0,3.5,42,96.3729,1.0014,1.516,0,2,"Fast"
"703",103,28,15,1,9.32,0,8.51,63,7.37,0,10.76,63,97.9192,1.0574,1.5823,0,2,"Fast"
"704",103,29,19,0,10.77,7,3.5,28,9.18,7,5.47,28,99.5321,1.0017,1.5158,0,2,"Fast"
"705",103,30,20,1,9.41,7,8.51,28,7.44,7,10.76,28,101.0784,1.0017,1.5161,0,2,"Fast"
"706",103,31,14,0,9.41,7,8.51,28,7.44,7,10.76,28,102.6248,1.0017,1.5161,0,2,"Fast"
"707",103,32,7,0,12.53,0,3.5,42,10.68,0,5.47,42,104.1712,1.0012,1.516,0,2,"Fast"
"708",103,33,39,1,7.59,21,7.44,63,6,21,9.41,63,105.7174,1.0016,1.5162,0,2,"Fast"
"709",103,34,35,1,13.35,21,4,42,11.38,21,6.26,42,107.2639,1.0017,1.5158,0,2,"Fast"
"710",103,35,36,0,12.93,21,3.5,63,11.02,21,5.47,63,108.81,1.2872,1.7988,0,2,"Fast"
"711",103,36,38,0,13.39,21,1.53,63,11.67,21,3.5,63,110.6559,1.0018,1.5159,0,2,"Fast"
"712",103,37,44,1,8.55,21,3.5,84,7.29,21,5.47,84,112.2023,1.0017,1.516,0,2,"Fast"
"713",103,38,15,0,13.22,0,4,63,11.27,0,6.26,63,113.7485,1.0016,1.5159,0,2,"Fast"
"714",103,39,28,1,7.12,7,7.44,70,5.63,7,9.41,70,115.295,1.1064,1.6324,0,2,"Fast"
"715",103,40,1,1,9.12,0,7.44,21,7.21,0,9.41,21,116.9577,1.0994,1.6158,0,2,"Fast"
"716",103,41,37,0,12.53,21,3.5,63,10.68,21,5.47,63,118.6038,1.0448,1.5661,0,2,"Fast"
"717",103,42,12,1,8.15,0,7.44,63,6.44,0,9.41,63,120.2001,1.0017,1.5161,0,2,"Fast"
"718",103,43,24,0,11.67,7,3.5,49,9.95,7,5.47,49,121.7464,1.0017,1.5161,0,2,"Fast"
"719",103,44,4,0,10.77,0,3.5,21,9.18,0,5.47,21,123.2928,1.0006,1.5152,0,2,"Fast"
"720",103,45,34,0,7.59,21,7.44,42,6,21,9.41,42,124.8391,1.1304,1.6488,0,2,"Fast"
"721",103,46,14,1,9.81,0,1.53,63,8.55,0,3.5,63,126.5185,1.0353,1.5489,0,2,"Fast"
"722",103,47,29,0,6.03,7,7.44,70,4.76,7,9.41,70,128.0981,1.0015,1.5158,0,2,"Fast"
"723",103,48,40,0,13.35,21,4,63,11.38,21,6.26,63,129.6445,1.0017,1.5154,0,2,"Fast"
"724",103,49,26,0,9.1,7,7.44,70,7.2,7,9.41,70,131.1908,1.4022,1.9151,0,2,"Fast"
"725",103,50,34,1,10.77,21,3.5,42,9.18,21,5.47,42,133.1362,1.0012,1.5158,0,2,"Fast"
"726",103,51,5,1,9.41,0,8.51,21,7.44,0,10.76,21,134.6826,1.0065,1.5326,0,2,"Fast"
"727",103,52,29,0,8.55,7,3.5,70,7.29,7,5.47,70,136.2456,1.0036,1.5159,0,2,"Fast"
"728",103,53,43,0,7.12,21,7.44,84,5.63,21,9.41,84,137.7919,1.0885,1.6157,0,2,"Fast"
"729",103,54,31,1,12.93,21,3.5,42,11.02,21,5.47,42,139.4379,1.0018,1.5163,0,2,"Fast"
"730",103,55,23,1,8.83,7,7.44,49,6.98,7,9.41,49,140.9844,1.0011,1.5159,0,2,"Fast"
"731",103,56,11,1,8.83,7,7.44,49,6.98,7,9.41,49,142.5308,1.2067,1.7321,0,2,"Fast"
"732",103,57,28,1,10.1,7,3.5,70,8.61,7,5.47,70,144.2933,1.0671,1.5822,0,2,"Fast"
"733",103,58,19,0,12.36,7,1.53,28,10.77,7,3.5,28,145.9061,1.0017,1.5162,0,2,"Fast"
"734",103,59,22,0,9.12,7,7.44,49,7.21,7,9.41,49,147.4525,1.4042,1.915,0,2,"Fast"
"735",103,60,37,1,14.38,21,1.53,63,12.53,21,3.5,63,149.3979,1.3385,1.8651,0,2,"Fast"
"736",103,61,9,0,7.59,0,7.44,42,6,0,9.41,42,151.2934,1.044,1.5658,0,2,"Fast"
"737",103,62,28,1,11.59,7,1.53,70,10.1,7,3.5,70,152.8897,1.1038,1.6156,0,2,"Fast"
"738",103,63,39,1,10.77,21,3.5,63,9.18,21,5.47,63,154.5358,1.1061,1.6323,0,2,"Fast"
"739",103,64,7,1,14.38,0,1.53,42,12.53,0,3.5,42,156.1985,1.0264,1.5492,0,2,"Fast"
"740",103,65,32,1,8.83,21,7.44,42,6.98,21,9.41,42,157.7782,1.3593,1.8818,0,2,"Fast"
"741",103,66,41,1,9.1,21,7.44,84,7.2,21,9.41,84,159.6903,1.0874,1.5988,0,2,"Fast"
"742",103,67,21,1,9.41,7,7.44,49,7.44,7,9.41,49,161.3198,1.0017,1.5161,0,2,"Fast"
"743",103,68,12,0,11.56,0,3.5,63,9.85,0,5.47,63,162.8661,1.0017,1.5161,0,2,"Fast"
"744",103,69,8,1,8.23,0,7.44,42,6.5,0,9.41,42,164.4125,1.2929,1.8153,0,2,"Fast"
"745",103,70,43,1,10.1,21,3.5,84,8.61,21,5.47,84,166.2582,1.0017,1.5161,0,2,"Fast"
"746",103,71,42,0,4.74,21,11.38,84,3.03,21,13.35,84,167.8045,1.0599,1.5829,0,2,"Fast"
"747",103,72,12,0,13.26,0,1.53,63,11.56,0,3.5,63,169.4173,1.0319,1.5492,0,2,"Fast"
"748",103,73,45,1,13.22,21,4,84,11.27,21,6.26,84,170.997,1.0016,1.5159,0,2,"Fast"
"749",103,74,2,1,8.83,0,7.44,21,6.98,0,9.41,21,172.5433,1.0017,1.5162,0,2,"Fast"
"750",103,75,25,0,7.59,7,7.44,49,6,7,9.41,49,174.0897,1.096,1.6159,0,2,"Fast"
"751",103,76,18,1,11.67,7,3.5,28,9.95,7,5.47,28,175.7358,1.0009,1.516,0,2,"Fast"
"752",103,77,41,1,12.91,21,3.5,84,11.01,21,5.47,84,177.2822,1.0468,1.566,0,2,"Fast"
"753",103,78,9,1,10.77,0,3.5,42,9.18,0,5.47,42,178.8784,1.1146,1.6324,0,2,"Fast"
"754",103,79,1,0,12.93,0,3.5,21,11.02,0,5.47,21,180.5412,1.0017,1.5161,0,2,"Fast"
"755",103,80,27,1,11.56,7,3.5,70,9.85,7,5.47,70,182.0876,1.0018,1.5158,0,2,"Fast"
"756",103,81,30,1,9.32,7,8.51,70,7.37,7,10.76,70,183.6339,1.1271,1.6491,0,2,"Fast"
"757",103,82,20,1,13.35,7,4,28,11.38,7,6.26,28,185.3132,1.144,1.6655,0,2,"Fast"
"758",103,83,33,0,4.78,21,11.38,42,3.06,21,13.35,42,187.0092,1.0804,1.5993,0,2,"Fast"
"759",103,84,23,0,12.53,7,3.5,49,10.68,7,5.47,49,188.6387,1.0016,1.5158,0,2,"Fast"
"760",103,85,8,1,11.67,0,3.5,42,9.95,0,5.47,42,190.185,1.0012,1.5162,0,2,"Fast"
"761",103,86,32,0,12.53,21,3.5,42,10.68,21,5.47,42,191.7314,1.1177,1.6323,0,2,"Fast"
"762",103,87,45,1,15.17,21,1.75,84,13.22,21,4,84,193.3942,1.0017,1.5151,0,2,"Fast"
"763",103,88,5,0,13.35,0,4,21,11.38,0,6.26,21,194.9406,1.0017,1.5162,0,2,"Fast"
"764",103,89,24,1,13.39,7,1.53,49,11.67,7,3.5,49,196.4869,1.0016,1.5159,0,2,"Fast"
"765",103,90,15,1,15.17,0,1.75,63,13.22,0,4,63,198.0333,1.0017,1.5161,0,2,"Fast"
"766",103,91,17,0,12.53,7,3.5,28,10.68,7,5.47,28,199.5796,1.0373,1.5491,0,2,"Fast"
"767",103,92,25,1,10.77,7,3.5,49,9.18,7,5.47,49,201.1592,1.0016,1.5163,0,2,"Fast"
"768",103,93,32,0,14.38,21,1.53,42,12.53,21,3.5,42,202.7056,1.0955,1.6159,0,2,"Fast"
"769",103,94,4,0,12.36,0,1.53,21,10.77,0,3.5,21,204.3518,1.0018,1.5161,0,2,"Fast"
"770",103,95,43,0,11.59,21,1.53,84,10.1,21,3.5,84,205.8981,1.1192,1.6321,0,2,"Fast"
"771",103,96,18,0,13.39,7,1.53,28,11.67,7,3.5,28,207.5608,1.0647,1.5825,0,2,"Fast"
"772",103,97,20,0,15.32,7,1.75,28,13.35,7,4,28,209.1738,1.0009,1.5159,0,2,"Fast"
"773",103,98,26,0,12.91,7,3.5,70,11.01,7,5.47,70,210.72,1.1539,1.6655,0,2,"Fast"
"774",103,99,30,0,13.22,7,4,70,11.27,7,6.26,70,212.416,1.0017,1.5161,0,2,"Fast"
"775",103,100,22,1,12.93,7,3.5,49,11.02,7,5.47,49,213.9624,1.0017,1.5161,0,2,"Fast"
"776",103,101,23,0,14.38,7,1.53,49,12.53,7,3.5,49,215.5087,1.053,1.5656,0,2,"Fast"
"777",103,102,40,0,15.32,21,1.75,63,13.35,21,4,63,217.105,1.0017,1.5161,0,2,"Fast"
"778",103,103,17,0,14.38,7,1.53,28,12.53,7,3.5,28,218.6513,1.0008,1.516,0,2,"Fast"
"779",103,104,21,1,13.35,7,3.5,49,11.38,7,5.47,49,220.1977,1.2668,1.7819,0,2,"Fast"
"780",103,105,13,0,10.1,0,3.5,63,8.61,0,5.47,63,222.0101,1.1184,1.6321,0,2,"Fast"
"781",103,106,29,0,9.81,7,1.53,70,8.55,7,3.5,70,223.6728,1.0017,1.5159,0,2,"Fast"
"782",103,107,26,1,14.82,7,1.53,70,12.91,7,3.5,70,225.2192,1.0018,1.5158,0,2,"Fast"
"783",103,108,10,0,15.32,0,1.75,42,13.35,0,4,42,226.7655,1.0017,1.5161,0,2,"Fast"
"784",103,109,21,0,15.32,7,1.53,49,13.35,7,3.5,49,228.3119,1.0017,1.5161,0,2,"Fast"
"785",103,110,13,0,11.59,0,1.53,63,10.1,0,3.5,63,229.8583,1.015,1.5326,0,2,"Fast"
"786",103,111,33,0,13.39,21,1.53,42,11.67,21,3.5,42,231.4212,1.0017,1.5159,0,2,"Fast"
"787",103,112,31,1,14.84,21,1.53,42,12.93,21,3.5,42,232.9676,1.0176,1.5325,0,2,"Fast"
"788",103,113,16,1,9.12,7,7.44,28,7.21,7,9.41,28,234.5306,1.0063,1.5328,0,2,"Fast"
"789",103,114,34,1,12.36,21,1.53,42,10.77,21,3.5,42,236.0936,1.1072,1.6325,0,2,"Fast"
"790",103,115,16,0,12.93,7,3.5,28,11.02,7,5.47,28,237.7562,1.0049,1.5158,0,2,"Fast"
"791",103,116,44,1,9.81,21,1.53,84,8.55,21,3.5,84,239.3026,1.2829,1.7987,0,2,"Fast"
"792",103,117,41,0,14.82,21,1.53,84,12.91,21,3.5,84,241.1317,1.0017,1.5161,0,2,"Fast"
"793",103,118,16,0,14.84,7,1.53,28,12.93,7,3.5,28,242.678,1.0264,1.5492,0,2,"Fast"
"794",103,119,27,0,13.26,7,1.53,70,11.56,7,3.5,70,244.2576,1.0017,1.5161,0,2,"Fast"
"795",103,120,25,1,12.36,7,1.53,49,10.77,7,3.5,49,245.804,1.0448,1.5661,0,2,"Fast"
"796",103,121,9,1,12.36,0,1.53,42,10.77,0,3.5,42,247.4002,1.0017,1.5162,0,2,"Fast"
"797",103,122,3,0,11.67,0,3.5,21,9.95,0,5.47,21,248.9464,1.0017,1.5163,0,2,"Fast"
"798",103,123,36,1,14.84,21,1.53,63,12.93,21,3.5,63,250.4929,1.3722,1.8986,0,2,"Fast"
"799",103,124,5,0,15.32,0,1.75,21,13.35,0,4,21,252.4217,1.0017,1.5161,0,2,"Fast"
"800",103,125,42,0,13.26,21,1.53,84,11.56,21,3.5,84,253.9681,1.6576,2.1806,0,2,"Fast"
"801",103,126,35,1,15.32,21,1.75,42,13.35,21,4,42,256.1795,1.0017,1.5161,0,2,"Fast"
"802",103,127,39,1,12.36,21,1.53,63,10.77,21,3.5,63,257.7259,1.0017,1.516,0,2,"Fast"
"803",103,128,11,1,14.82,0,1.53,63,12.91,0,3.5,63,259.2722,1.0167,1.5328,0,2,"Fast"
"804",103,129,1,0,14.84,0,1.53,21,12.93,0,3.5,21,260.8352,1.0137,1.5329,0,2,"Fast"
"805",103,130,22,1,14.84,7,1.53,49,12.93,7,3.5,49,262.3982,1.3242,1.8485,0,2,"Fast"
"806",103,131,2,0,12.53,0,3.5,21,10.68,0,5.47,21,264.2769,1.0051,1.5327,0,2,"Fast"
"807",103,132,8,0,13.39,0,1.53,42,11.67,0,3.5,42,265.8401,1.2243,1.7487,0,2,"Fast"
"808",103,133,2,1,14.38,0,1.53,21,12.53,0,3.5,21,267.6192,1.0016,1.5161,0,2,"Fast"
"809",103,134,30,1,15.17,7,1.75,70,13.22,7,4,70,269.1656,1.0017,1.516,0,2,"Fast"
"810",103,135,3,0,13.39,0,1.53,21,11.67,0,3.5,21,270.7119,1.033,1.5491,0,2,"Fast"
"811",104,1,42,0,8.15,21,7.44,84,6.44,21,9.41,84,2.1126,17.337,17.9218,0,1,"Fed"
"812",104,2,39,1,7.59,21,7.44,63,6,21,9.41,63,20.0862,4.9558,5.4747,0,1,"Fed"
"813",104,3,43,0,7.12,21,7.44,84,5.63,21,9.41,84,25.5904,8.083,8.599,0,1,"Fed"
"814",104,4,6,0,9.12,0,7.44,42,7.21,0,9.41,42,34.2368,3.4609,3.9764,0,1,"Fed"
"815",104,5,7,0,8.83,0,7.44,42,6.98,0,9.41,42,38.2433,2.4467,2.963,0,1,"Fed"
"816",104,6,37,1,8.83,21,7.44,63,6.98,21,9.41,63,41.2369,5.1642,5.6889,0,1,"Fed"
"817",104,7,17,1,8.83,7,7.44,28,6.98,7,9.41,28,46.957,7.9245,8.4486,1,1,"Fed"
"818",104,8,8,0,8.23,0,7.44,42,6.5,0,9.41,42,55.4362,3.4772,3.994,0,1,"Fed"
"819",104,9,28,1,7.12,7,7.44,70,5.63,7,9.41,70,59.4608,5.3569,5.8716,1,1,"Fed"
"820",104,10,38,1,8.23,21,7.44,63,6.5,21,9.41,63,65.3634,3.2545,3.7769,0,1,"Fed"
"821",104,11,38,0,11.67,21,3.5,63,9.95,21,5.47,63,69.1869,3.9263,4.4424,0,1,"Fed"
"822",104,12,16,1,9.12,7,7.44,28,7.21,7,9.41,28,73.6605,7.2292,7.7507,0,1,"Fed"
"823",104,13,41,1,9.1,21,7.44,84,7.2,21,9.41,84,81.4414,6.0084,6.521,0,1,"Fed"
"824",104,14,29,1,6.03,7,7.44,70,4.76,7,9.41,70,87.9931,4.897,5.4234,1,1,"Fed"
"825",104,15,18,1,8.23,7,7.44,28,6.5,7,9.41,28,93.4471,3.883,4.4086,1,1,"Fed"
"826",104,16,18,1,4.78,7,11.38,28,3.06,7,13.35,28,97.8861,8.1,8.6159,0,1,"Fed"
"827",104,17,27,0,8.15,7,7.44,70,6.44,7,9.41,70,106.5329,5.0939,5.6061,0,1,"Fed"
"828",104,18,29,0,3.5,7,11.38,70,2.24,7,13.35,70,112.1691,3.5129,4.0264,1,1,"Fed"
"829",104,19,11,1,9.1,0,7.44,63,7.2,0,9.41,63,116.2262,1.9037,2.431,0,1,"Fed"
"830",104,20,21,0,9.41,7,7.44,49,7.44,7,9.41,49,118.6878,5.5617,6.088,0,1,"Fed"
"831",104,21,23,1,8.83,7,7.44,49,6.98,7,9.41,49,124.8066,4.3703,4.8904,0,1,"Fed"
"832",104,22,12,1,8.15,0,7.44,63,6.44,0,9.41,63,129.7277,2.4417,2.9629,0,1,"Fed"
"833",104,23,3,0,8.23,0,7.44,21,6.5,0,9.41,21,132.7205,3.2491,3.7612,0,1,"Fed"
"834",104,24,25,0,7.59,7,7.44,49,6,7,9.41,49,136.5122,4.9299,5.4561,0,1,"Fed"
"835",104,25,13,0,7.12,0,7.44,63,5.63,0,9.41,63,141.9989,4.6112,5.1245,1,1,"Fed"
"836",104,26,32,0,8.83,21,7.44,42,6.98,21,9.41,42,147.154,6.8228,7.3515,1,1,"Fed"
"837",104,27,13,0,8.83,21,7.44,42,6.98,21,9.41,42,154.5525,3.4163,3.9275,0,1,"Fed"
"838",104,28,27,1,11.56,7,3.5,70,9.85,7,5.47,70,158.5107,4.9309,5.4558,0,1,"Fed"
"839",104,29,22,1,9.12,7,7.44,49,7.21,7,9.41,49,163.9968,6.3568,6.8704,0,1,"Fed"
"840",104,30,44,0,6.03,21,7.44,84,4.76,21,9.41,84,170.8972,3.8082,4.3259,0,1,"Fed"
"841",104,31,2,1,8.83,0,7.44,21,6.98,0,9.41,21,175.2538,2.7398,3.2617,0,1,"Fed"
"842",104,32,32,1,5.14,21,11.38,42,3.29,21,13.35,42,178.5467,11.7675,12.2898,1,1,"Fed"
"843",104,33,35,0,9.41,21,8.51,42,7.44,21,10.76,42,190.867,6.3582,6.8706,1,1,"Fed"
"844",104,34,19,0,7.59,7,7.44,28,6,7,9.41,28,197.7681,4.0412,4.5578,0,1,"Fed"
"845",104,35,30,0,9.32,7,8.51,70,7.37,7,10.76,70,202.3566,3.5016,4.027,0,1,"Fed"
"846",104,36,14,0,6.03,0,7.44,63,4.76,0,9.41,63,206.4135,2.8917,3.4124,0,1,"Fed"
"847",104,37,19,0,10.77,7,3.5,28,9.18,7,5.47,28,209.8561,6.5293,7.0523,0,1,"Fed"
"848",104,38,45,1,9.32,21,8.51,84,7.37,21,10.76,84,216.9399,3.9181,4.4416,0,1,"Fed"
"849",104,39,43,0,10.1,21,3.5,84,8.61,21,5.47,84,221.4116,2.7979,3.3122,0,1,"Fed"
"850",104,40,6,0,12.93,0,3.5,42,11.02,0,5.47,42,224.7543,3.4464,3.9598,0,1,"Fed"
"851",104,41,8,1,11.67,0,3.5,42,9.95,0,5.47,42,228.7442,8.8818,9.3978,0,1,"Fed"
"852",104,42,28,1,4.14,7,11.38,70,2.65,7,13.35,70,238.1729,4.6131,5.1403,1,1,"Fed"
"853",104,43,5,0,9.41,0,8.51,21,7.44,0,10.76,21,243.344,3.3858,3.91,0,1,"Fed"
"854",104,44,1,1,9.12,0,7.44,21,7.21,0,9.41,21,247.2847,5.1651,5.6886,0,1,"Fed"
"855",104,45,23,0,12.53,7,3.5,49,10.68,7,5.47,49,253.0038,6.5093,7.0361,0,1,"Fed"
"856",104,46,19,1,12.36,7,1.53,28,10.77,7,3.5,28,260.0877,4.5222,5.0403,0,1,"Fed"
"857",104,47,11,1,12.91,0,3.5,63,11.01,0,5.47,63,265.1591,1.2982,1.8144,0,1,"Fed"
"858",104,48,24,0,8.23,7,7.44,49,6.5,7,9.41,49,267.0042,6.0933,6.604,0,1,"Fed"
"859",104,49,34,1,7.59,21,7.44,42,6,21,9.41,42,273.6385,4.6196,5.1411,1,1,"Fed"
"860",104,50,2,0,12.53,0,3.5,21,10.68,0,5.47,21,278.8103,6.3668,6.8863,0,1,"Fed"
"861",104,51,20,1,9.41,7,8.51,28,7.44,7,10.76,28,285.7274,7.4427,7.9672,0,1,"Fed"
"862",104,52,3,1,11.67,0,3.5,21,9.95,0,5.47,21,293.7252,1.9641,2.48,0,1,"Fed"
"863",104,53,15,1,9.32,0,8.51,63,7.37,0,10.76,63,296.2352,4.5021,5.0243,0,1,"Fed"
"864",104,54,7,1,12.53,0,3.5,42,10.68,0,5.47,42,301.29,3.1362,3.6609,0,1,"Fed"
"865",104,55,10,0,9.41,0,8.51,42,7.44,0,10.76,42,304.9813,3.3397,3.8611,0,1,"Fed"
"866",104,56,43,1,11.59,21,1.53,84,10.1,21,3.5,84,308.8721,5.0254,5.5398,1,1,"Fed"
"867",104,57,32,0,3.29,21,13.35,42,1.44,21,15.32,42,314.4429,5.1034,5.622,1,1,"Fed"
"868",104,58,22,1,12.93,7,3.5,49,11.02,7,5.47,49,320.0955,3.2905,3.8112,0,1,"Fed"
"869",104,59,6,0,14.84,0,1.53,42,12.93,0,3.5,42,323.9536,1.3512,1.8653,0,1,"Fed"
"870",104,60,15,0,13.22,0,4,63,11.27,0,6.26,63,325.8486,1.3772,1.8989,0,1,"Fed"
"871",104,61,39,0,10.77,21,3.5,63,9.18,21,5.47,63,327.7782,6.1199,6.637,0,1,"Fed"
"872",104,62,35,0,5.47,21,13.01,42,3.5,21,15.27,42,334.4457,3.9082,4.4259,1,1,"Fed"
"873",104,63,41,0,12.91,21,3.5,84,11.01,21,5.47,84,338.9021,3.0107,3.5266,1,1,"Fed"
"874",104,64,36,0,9.12,21,7.44,63,7.21,21,9.41,63,342.4596,5.5572,6.0716,0,1,"Fed"
"875",104,65,26,0,9.1,7,7.44,70,7.2,7,9.41,70,348.5627,2.7184,3.2442,0,1,"Fed"
"876",104,66,26,1,12.91,7,3.5,70,11.01,7,5.47,70,351.838,5.2118,5.7389,0,1,"Fed"
"877",104,67,35,1,3.5,21,15.27,42,1.53,21,17.52,42,357.608,3.913,4.4415,1,1,"Fed"
"878",104,68,29,0,2.24,7,13.35,70,0.98,7,15.32,70,362.0802,6.2894,6.8031,1,1,"Fed"
"879",104,69,17,0,5.14,7,11.38,28,3.29,7,13.35,28,368.914,5.9355,6.4532,0,1,"Fed"
"880",104,70,4,1,7.59,0,7.44,21,6,0,9.41,21,375.3986,1.8506,2.3644,0,1,"Fed"
"881",104,71,26,1,14.82,7,1.53,70,12.91,7,3.5,70,377.7937,4.1286,4.6417,0,1,"Fed"
"882",104,72,9,1,7.59,0,7.44,42,6,0,9.41,42,382.4653,3.0879,3.6108,0,1,"Fed"
"883",104,73,40,0,9.41,21,8.51,63,7.44,21,10.76,63,386.1073,4.8947,5.4228,0,1,"Fed"
"884",104,74,36,0,12.93,21,3.5,63,11.02,21,5.47,63,391.5613,6.8644,7.3846,1,1,"Fed"
"885",104,75,16,0,12.93,7,3.5,28,11.02,7,5.47,28,398.9764,3.8976,4.4258,0,1,"Fed"
"886",104,76,4,1,10.77,0,3.5,21,9.18,0,5.47,21,403.4335,2.936,3.4612,0,1,"Fed"
"887",104,77,44,1,8.55,21,3.5,84,7.29,21,5.47,84,406.9244,4.9491,5.4736,0,1,"Fed"
"888",104,78,1,0,12.93,0,3.5,21,11.02,0,5.47,21,412.428,6.7328,7.2526,0,1,"Fed"
"889",104,79,13,0,11.59,0,1.53,63,10.1,0,3.5,63,419.7108,1.355,1.8819,0,1,"Fed"
"890",104,80,42,1,11.56,21,3.5,84,9.85,21,5.47,84,421.6236,4.5225,5.0408,0,1,"Fed"
"891",104,81,33,1,8.23,21,7.44,42,6.5,21,9.41,42,426.6951,4.8259,5.3401,1,1,"Fed"
"892",104,82,22,0,14.84,7,1.53,49,12.93,7,3.5,49,432.0659,4.0321,4.5579,0,1,"Fed"
"893",104,83,41,1,3.39,21,13.35,84,1.48,21,15.32,84,436.655,10.6108,11.1259,1,1,"Fed"
"894",104,84,21,1,13.35,7,3.5,49,11.38,7,5.47,49,447.8119,2.5816,3.0954,0,1,"Fed"
"895",104,85,5,0,13.35,0,4,21,11.38,0,6.26,21,450.9378,1.6716,2.1974,0,1,"Fed"
"896",104,86,10,0,13.35,0,4,42,11.38,0,6.26,42,453.1655,1.5803,2.0976,0,1,"Fed"
"897",104,87,15,1,15.17,0,1.75,63,13.22,0,4,63,455.2935,1.4925,2.0149,0,1,"Fed"
"898",104,88,34,1,4.41,21,11.38,42,2.83,21,13.35,42,457.3389,2.9351,3.4613,1,1,"Fed"
"899",104,89,20,1,13.35,7,4,28,11.38,7,6.26,28,460.8313,3.0901,3.6091,0,1,"Fed"
"900",104,90,45,1,13.22,21,4,84,11.27,21,6.26,84,464.4728,3.424,3.9428,0,1,"Fed"
"901",104,91,45,0,15.17,21,1.75,84,13.22,21,4,84,468.446,4.6279,5.1569,0,1,"Fed"
"902",104,92,30,0,13.22,7,4,70,11.27,7,6.26,70,473.6344,3.8864,4.4085,0,1,"Fed"
"903",104,93,25,1,10.77,7,3.5,49,9.18,7,5.47,49,478.0732,2.5848,3.1125,0,1,"Fed"
"904",104,94,4,1,12.36,0,1.53,21,10.77,0,3.5,21,481.2164,2.8654,3.3944,0,1,"Fed"
"905",104,95,18,0,13.39,7,1.53,28,11.67,7,3.5,28,484.6418,4.8882,5.4067,0,1,"Fed"
"906",104,96,5,1,15.32,0,1.75,21,13.35,0,4,21,490.079,1.3789,1.8973,0,1,"Fed"
"907",104,97,9,1,10.77,0,3.5,42,9.18,0,5.47,42,492.0071,2.4983,3.0125,0,1,"Fed"
"908",104,98,27,0,13.26,7,1.53,70,11.56,7,3.5,70,495.05,3.4628,3.9772,0,1,"Fed"
"909",104,99,24,1,11.67,7,3.5,49,9.95,7,5.47,49,499.0577,5.5124,6.0384,0,1,"Fed"
"910",104,100,40,0,13.35,21,4,63,11.38,21,6.26,63,505.1262,8.1,8.6161,0,1,"Fed"
"911",104,101,8,1,13.39,0,1.53,42,11.67,0,3.5,42,513.7731,2.1001,2.6135,0,1,"Fed"
"912",104,102,24,0,13.39,7,1.53,49,11.67,7,3.5,49,516.4161,3.5462,4.0599,0,1,"Fed"
"913",104,103,31,0,9.12,21,7.44,42,7.21,21,9.41,42,520.5066,1.8392,2.3641,0,1,"Fed"
"914",104,104,7,1,14.38,0,1.53,42,12.53,0,3.5,42,522.9016,3.8441,4.3579,0,1,"Fed"
"915",104,105,31,0,12.93,21,3.5,42,11.02,21,5.47,42,527.2914,4.1744,4.6914,1,1,"Fed"
"916",104,106,31,1,3.39,21,13.35,42,1.48,21,15.32,42,532.0136,5.1644,5.6886,1,1,"Fed"
"917",104,107,10,0,15.32,0,1.75,42,13.35,0,4,42,537.7327,1.7093,2.2307,0,1,"Fed"
"918",104,108,1,0,14.84,0,1.53,21,12.93,0,3.5,21,539.9948,1.3267,1.8475,0,1,"Fed"
"919",104,109,21,1,15.32,7,1.53,49,13.35,7,3.5,49,541.873,3.2009,3.7272,0,1,"Fed"
"920",104,110,39,0,12.36,21,1.53,63,10.77,21,3.5,63,545.6307,4.6353,5.1573,0,1,"Fed"
"921",104,111,28,1,2.65,7,13.35,70,1.16,7,15.32,70,550.8182,8.4389,8.9653,1,1,"Fed"
"922",104,112,33,1,4.78,21,11.38,42,3.06,21,13.35,42,559.814,5.5005,6.0226,1,1,"Fed"
"923",104,113,3,1,13.39,0,1.53,21,11.67,0,3.5,21,565.867,1.4218,1.9476,0,1,"Fed"
"924",104,114,33,1,3.06,21,13.35,42,1.34,21,15.32,42,567.845,6.3169,6.8374,1,1,"Fed"
"925",104,115,34,0,2.83,21,13.35,42,1.24,21,15.32,42,574.7128,2.8166,3.3442,1,1,"Fed"
"926",104,116,36,1,3.39,21,13.35,63,1.48,21,15.32,63,578.0875,4.8173,5.3413,0,1,"Fed"
"927",104,117,37,1,12.53,21,3.5,63,10.68,21,5.47,63,583.4579,3.0955,3.6117,0,1,"Fed"
"928",104,118,9,0,12.36,0,1.53,42,10.77,0,3.5,42,587.1004,2.1248,2.6463,0,1,"Fed"
"929",104,119,11,0,14.82,0,1.53,63,12.91,0,3.5,63,589.7767,1.4966,2.0148,0,1,"Fed"
"930",104,120,12,1,11.56,0,3.5,63,9.85,0,5.47,63,591.8218,2.3635,2.8794,0,1,"Fed"
"931",104,121,14,1,8.55,0,3.5,63,7.29,0,5.47,63,594.7317,3.0861,3.611,0,1,"Fed"
"932",104,122,14,0,9.81,0,1.53,63,8.55,0,3.5,63,598.3737,7.444,7.9669,0,1,"Fed"
"933",104,123,2,1,14.38,0,1.53,21,12.53,0,3.5,21,606.3713,1.9819,2.4969,0,1,"Fed"
"934",104,124,12,1,13.26,0,1.53,63,11.56,0,3.5,63,608.899,1.3508,1.8646,0,1,"Fed"
"935",104,125,42,0,13.26,21,1.53,84,11.56,21,3.5,84,610.7946,4.0309,4.5581,0,1,"Fed"
"936",104,126,38,0,13.39,21,1.53,63,11.67,21,3.5,63,615.3835,1.0016,1.5157,0,1,"Fed"
"937",104,127,16,0,14.84,7,1.53,28,12.93,7,3.5,28,616.9301,1.8879,2.413,0,1,"Fed"
"938",104,128,44,1,9.81,21,1.53,84,8.55,21,3.5,84,619.3736,2.0996,2.6135,0,1,"Fed"
"939",104,129,20,0,15.32,7,1.75,28,13.35,7,4,28,622.0179,4.4001,4.924,0,1,"Fed"
"940",104,130,30,1,15.17,7,1.75,70,13.22,7,4,70,626.973,1.4841,1.9982,1,1,"Fed"
"941",104,131,25,0,12.36,7,1.53,49,10.77,7,3.5,49,629.0017,3.0724,3.5936,0,1,"Fed"
"942",104,132,40,1,15.32,21,1.75,63,13.35,21,4,63,632.6258,1.5198,2.0334,0,1,"Fed"
"943",104,133,37,0,14.38,21,1.53,63,12.53,21,3.5,63,634.6875,1.2177,1.7324,0,1,"Fed"
"944",104,134,23,0,14.38,7,1.53,49,12.53,7,3.5,49,636.4507,2.7986,3.3276,0,1,"Fed"
"945",104,135,17,0,14.38,7,1.53,28,12.53,7,3.5,28,639.8095,1.0017,1.5157,0,1,"Fed"
"946",104,1,36,0,9.12,21,7.44,63,7.21,21,9.41,63,2.1283,3.5249,4.1029,0,2,"Fast"
"947",104,2,36,0,12.93,21,3.5,63,11.02,21,5.47,63,6.2686,3.7536,4.276,0,2,"Fast"
"948",104,3,1,0,9.12,0,7.44,21,7.21,0,9.41,21,10.5917,4.4705,4.9904,0,2,"Fast"
"949",104,4,26,1,9.1,7,7.44,70,7.2,7,9.41,70,15.6298,4.2813,4.8078,0,2,"Fast"
"950",104,5,14,0,6.03,0,7.44,63,4.76,0,9.41,63,20.4684,3.6105,4.1257,0,2,"Fast"
"951",104,6,6,0,9.12,0,7.44,42,7.21,0,9.41,42,24.6253,4.5809,5.1073,0,2,"Fast"
"952",104,7,3,1,8.23,0,7.44,21,6.5,0,9.41,21,29.7632,2.812,3.3277,0,2,"Fast"
"953",104,8,35,1,9.41,21,8.51,42,7.44,21,10.76,42,33.1219,4.0766,4.5918,1,2,"Fast"
"954",104,9,28,1,7.12,7,7.44,70,5.63,7,9.41,70,37.7444,3.8947,4.4087,0,2,"Fast"
"955",104,10,20,0,9.41,7,8.51,28,7.44,7,10.76,28,42.1839,2.4144,2.9285,0,2,"Fast"
"956",104,11,31,0,9.12,21,7.44,42,7.21,21,9.41,42,45.1436,3.8956,4.4088,0,2,"Fast"
"957",104,12,4,1,7.59,0,7.44,21,6,0,9.41,21,49.5831,3.432,3.9434,0,2,"Fast"
"958",104,13,41,1,9.1,21,7.44,84,7.2,21,9.41,84,53.5571,2.4017,2.9124,1,2,"Fast"
"959",104,14,21,0,9.41,7,7.44,49,7.44,7,9.41,49,56.5002,5.8345,6.3538,0,2,"Fast"
"960",104,15,37,1,8.83,21,7.44,63,6.98,21,9.41,63,62.8851,6.4015,6.9196,0,2,"Fast"
"961",104,16,44,1,6.03,21,7.44,84,4.76,21,9.41,84,69.8354,6.9632,7.4848,1,2,"Fast"
"962",104,17,13,0,7.12,0,7.44,63,5.63,0,9.41,63,77.351,4.7039,5.2236,1,2,"Fast"
"963",104,18,40,1,9.41,21,8.51,63,7.44,21,10.76,63,82.6053,5.0811,5.6052,0,2,"Fast"
"964",104,19,5,1,9.41,0,8.51,21,7.44,0,10.76,21,88.242,5.4691,5.9877,0,2,"Fast"
"965",104,20,29,1,6.03,7,7.44,70,4.76,7,9.41,70,94.2611,3.6977,4.2086,0,2,"Fast"
"966",104,21,16,0,9.12,7,7.44,28,7.21,7,9.41,28,98.5011,3.0169,3.5271,1,2,"Fast"
"967",104,22,27,1,8.15,7,7.44,70,6.44,7,9.41,70,102.0594,6.0038,6.5201,0,2,"Fast"
"968",104,23,25,0,7.59,7,7.44,49,6,7,9.41,49,108.6107,5.0601,5.5729,1,2,"Fast"
"969",104,24,32,1,8.83,21,7.44,42,6.98,21,9.41,42,114.2141,5.7203,6.2374,0,2,"Fast"
"970",104,25,5,0,13.35,0,4,21,11.38,0,6.26,21,120.4993,4.3078,4.8243,1,2,"Fast"
"971",104,26,42,1,8.15,21,7.44,84,6.44,21,9.41,84,125.3545,5.0761,5.5893,1,2,"Fast"
"972",104,27,6,0,12.93,0,3.5,42,11.02,0,5.47,42,130.9746,5.4724,5.9878,0,2,"Fast"
"973",104,28,5,0,3.5,0,15.27,21,1.53,0,17.52,21,137.0103,2.6127,3.1285,1,2,"Fast"
"974",104,29,20,0,13.35,7,4,28,11.38,7,6.26,28,140.1696,3.0521,3.577,0,2,"Fast"
"975",104,30,40,1,13.35,21,4,63,11.38,21,6.26,63,143.7778,2.2846,2.7958,0,2,"Fast"
"976",104,31,32,0,12.53,21,3.5,42,10.68,21,5.47,42,146.6044,1.9385,2.463,0,2,"Fast"
"977",104,32,43,1,7.12,21,7.44,84,5.63,21,9.41,84,149.0986,2.7073,3.2283,1,2,"Fast"
"978",104,33,39,1,7.59,21,7.44,63,6,21,9.41,63,152.3575,2.0815,2.5961,1,2,"Fast"
"979",104,34,24,1,8.23,7,7.44,49,6.5,7,9.41,49,154.9847,2.2541,2.7793,1,2,"Fast"
"980",104,35,15,0,9.32,0,8.51,63,7.37,0,10.76,63,157.7947,3.6197,4.1428,1,2,"Fast"
"981",104,36,43,1,4.14,21,11.38,84,2.65,21,13.35,84,161.9682,3.5101,4.0265,1,2,"Fast"
"982",104,37,23,0,8.83,7,7.44,49,6.98,7,9.41,49,166.0253,4.8291,5.3396,0,2,"Fast"
"983",104,38,38,0,8.23,21,7.44,63,6.5,21,9.41,63,171.396,4.2994,4.8245,0,2,"Fast"
"984",104,39,20,1,15.32,7,1.75,28,13.35,7,4,28,176.2678,3.0589,3.5775,0,2,"Fast"
"985",104,40,10,0,9.41,0,8.51,42,7.44,0,10.76,42,179.876,5.5544,6.071,1,2,"Fast"
"986",104,41,12,1,8.15,0,7.44,63,6.44,0,9.41,63,185.9783,3.7008,4.2253,1,2,"Fast"
"987",104,42,23,1,12.53,7,3.5,49,10.68,7,5.47,49,190.2349,3.6922,4.2095,0,2,"Fast"
"988",104,43,39,1,4.41,21,11.38,63,2.83,21,13.35,63,194.4749,2.1071,2.6299,1,2,"Fast"
"989",104,44,34,1,7.59,21,7.44,42,6,21,9.41,42,197.1353,3.5505,4.0767,1,2,"Fast"
"990",104,45,31,1,12.93,21,3.5,42,11.02,21,5.47,42,201.2423,2.3245,2.8453,0,2,"Fast"
"991",104,46,9,0,7.59,0,7.44,42,6,0,9.41,42,204.1189,4.6155,5.1404,0,2,"Fast"
"992",104,47,22,1,9.12,7,7.44,49,7.21,7,9.41,49,209.29,4.6126,5.1241,0,2,"Fast"
"993",104,48,45,1,9.32,21,8.51,84,7.37,21,10.76,84,214.4445,3.1626,3.6779,1,2,"Fast"
"994",104,49,16,0,5.3,7,11.38,28,3.39,7,13.35,28,218.1525,4.5185,5.0403,0,2,"Fast"
"995",104,50,13,0,5.3,7,11.38,28,3.39,7,13.35,28,223.2238,3.2151,3.7274,0,2,"Fast"
"996",104,51,7,0,8.83,0,7.44,42,6.98,0,9.41,42,226.9816,5.7134,6.2378,1,2,"Fast"
"997",104,52,24,0,4.78,7,11.38,49,3.06,7,13.35,49,233.2502,3.4681,3.9928,1,2,"Fast"
"998",104,53,21,1,13.35,7,3.5,49,11.38,7,5.47,49,237.2741,1.6923,2.2142,0,2,"Fast"
"999",104,54,15,0,13.35,7,3.5,49,11.38,7,5.47,49,239.5188,4.3684,4.891,0,2,"Fast"
"1000",104,55,25,0,4.41,7,11.38,49,2.83,7,13.35,49,244.4405,4.7498,5.2738,0,2,"Fast"
"1001",104,56,41,0,5.29,21,11.38,84,3.39,21,13.35,84,249.7446,2.3739,2.8954,0,2,"Fast"
"1002",104,57,22,0,12.93,7,3.5,49,11.02,7,5.47,49,252.671,2.9514,3.4777,0,2,"Fast"
"1003",104,58,44,1,3.5,21,11.38,84,2.24,21,13.35,84,256.1795,1.8117,2.3302,1,2,"Fast"
"1004",104,59,4,1,10.77,0,3.5,21,9.18,0,5.47,21,258.5406,1.4579,1.9811,0,2,"Fast"
"1005",104,60,39,1,2.83,21,13.35,63,1.24,21,15.32,63,260.5691,1.9172,2.4298,1,2,"Fast"
"1006",104,61,26,1,12.91,7,3.5,70,11.01,7,5.47,70,263.03,2.1207,2.6465,1,2,"Fast"
"1007",104,62,11,0,9.1,0,7.44,63,7.2,0,9.41,63,265.707,1.7075,2.2309,1,2,"Fast"
"1008",104,63,11,0,9.1,0,7.44,63,7.2,0,9.41,63,267.9684,4.7108,5.2232,1,2,"Fast"
"1009",104,64,10,0,9.1,0,7.44,63,7.2,0,9.41,63,273.2227,1.1196,1.6323,1,2,"Fast"
"1010",104,65,36,0,14.84,21,1.53,63,12.93,21,3.5,63,274.8854,4.0649,4.592,0,2,"Fast"
"1011",104,66,7,0,14.84,21,1.53,63,12.93,21,3.5,63,279.5078,1.6027,2.1145,1,2,"Fast"
"1012",104,67,2,1,8.83,0,7.44,21,6.98,0,9.41,21,281.6528,2.13,2.6466,1,2,"Fast"
"1013",104,68,18,1,8.23,7,7.44,28,6.5,7,9.41,28,284.3298,1.4053,1.9317,1,2,"Fast"
"1014",104,69,8,0,8.23,0,7.44,42,6.5,0,9.41,42,286.2918,1.282,1.7978,1,2,"Fast"
"1015",104,70,16,0,14.84,7,1.53,28,12.93,7,3.5,28,288.1208,1.2456,1.7659,1,2,"Fast"
"1016",104,71,13,0,11.59,0,1.53,63,10.1,0,3.5,63,289.9166,2.5698,3.0956,0,2,"Fast"
"1017",104,72,44,1,2.24,21,13.35,84,0.98,21,15.32,84,293.0426,5.2845,5.8051,1,2,"Fast"
"1018",104,73,6,1,14.84,0,1.53,42,12.93,0,3.5,42,298.8788,2.9509,3.4771,0,2,"Fast"
"1019",104,74,35,1,5.47,21,13.01,42,3.5,21,15.27,42,302.3872,1.9238,2.4465,1,2,"Fast"
"1020",104,75,8,0,5.47,21,13.01,42,3.5,21,15.27,42,304.8647,3.214,3.7274,0,2,"Fast"
"1021",104,76,37,1,12.53,21,3.5,63,10.68,21,5.47,63,308.6225,1.7765,2.2965,1,2,"Fast"
"1022",104,77,19,1,7.59,7,7.44,28,6,7,9.41,28,310.9504,2.9522,3.478,1,2,"Fast"
"1023",104,78,40,1,15.32,21,1.75,63,13.35,21,4,63,314.4588,3.2835,3.8106,0,2,"Fast"
"1024",104,79,14,0,8.55,0,3.5,63,7.29,0,5.47,63,318.2997,4.3634,4.8917,0,2,"Fast"
"1025",104,80,31,1,14.84,21,1.53,42,12.93,21,3.5,42,323.2215,1.2893,1.8148,1,2,"Fast"
"1026",104,81,9,1,10.77,0,3.5,42,9.18,0,5.47,42,325.0671,1.2201,1.7316,0,2,"Fast"
"1027",104,82,42,0,4.74,21,11.38,84,3.03,21,13.35,84,326.8296,1.8409,2.3637,1,2,"Fast"
"1028",104,83,38,1,11.67,21,3.5,63,9.95,21,5.47,63,329.224,2.7906,3.3121,0,2,"Fast"
"1029",104,84,18,1,4.78,7,11.38,28,3.06,7,13.35,28,332.5661,3.0963,3.6108,1,2,"Fast"
"1030",104,85,41,0,14.82,21,1.53,84,12.91,21,3.5,84,336.2075,2.5996,3.1114,0,2,"Fast"
"1031",104,86,19,1,4.41,7,11.38,28,2.83,7,13.35,28,339.3501,2.0802,2.5961,1,2,"Fast"
"1032",104,87,18,1,3.06,7,13.35,28,1.34,7,15.32,28,341.9773,1.2537,1.7649,1,2,"Fast"
"1033",104,88,11,0,3.39,0,13.35,63,1.48,0,15.32,63,343.773,1.2174,1.7315,1,2,"Fast"
"1034",104,89,30,0,9.32,7,8.51,70,7.37,7,10.76,70,345.5355,8.2549,8.7823,0,2,"Fast"
"1035",104,90,34,1,4.41,21,11.38,42,2.83,21,13.35,42,354.3481,4.3702,4.891,1,2,"Fast"
"1036",104,91,19,1,2.83,7,13.35,28,1.24,7,15.32,28,359.2698,3.6891,4.2092,1,2,"Fast"
"1037",104,92,45,1,5.42,21,13.01,84,3.47,21,15.27,84,363.5098,5.3605,5.8717,1,2,"Fast"
"1038",104,93,2,0,5.42,21,13.01,84,3.47,21,15.27,84,369.4126,4.9212,5.4398,0,2,"Fast"
"1039",104,94,30,0,13.22,7,4,70,11.27,7,6.26,70,374.883,2.3395,2.8623,0,2,"Fast"
"1040",104,95,25,0,12.36,7,1.53,49,10.77,7,3.5,49,377.7762,2.6298,3.1455,0,2,"Fast"
"1041",104,96,28,0,10.1,7,3.5,70,8.61,7,5.47,70,380.9521,4.086,4.6082,0,2,"Fast"
"1042",104,97,38,1,13.39,21,1.53,63,11.67,21,3.5,63,385.5911,2.0877,2.6127,0,2,"Fast"
"1043",104,98,42,0,3.03,21,13.35,84,1.33,21,15.32,84,388.2349,1.692,2.2141,1,2,"Fast"
"1044",104,99,45,1,3.47,21,15.27,84,1.52,21,17.52,84,390.4796,2.3588,2.8792,1,2,"Fast"
"1045",104,100,14,0,9.81,0,1.53,63,8.55,0,3.5,63,393.3894,3.1609,3.6774,0,2,"Fast"
"1046",104,101,22,0,14.84,7,1.53,49,12.93,7,3.5,49,397.0974,2.9176,3.4445,0,2,"Fast"
"1047",104,102,8,1,13.39,0,1.53,42,11.67,0,3.5,42,400.5725,3.6103,4.1256,0,2,"Fast"
"1048",104,103,34,1,2.83,21,13.35,42,1.24,21,15.32,42,404.7293,2.0126,2.5323,1,2,"Fast"
"1049",104,104,33,1,8.23,21,7.44,42,6.5,21,9.41,42,407.29,4.9805,5.5059,0,2,"Fast"
"1050",104,105,33,0,11.67,21,3.5,42,9.95,21,5.47,42,412.8269,3.6435,4.1591,0,2,"Fast"
"1051",104,106,30,1,15.17,7,1.75,70,13.22,7,4,70,417.017,4.142,4.6584,0,2,"Fast"
"1052",104,107,9,1,12.36,0,1.53,42,10.77,0,3.5,42,421.706,2.7162,3.2282,0,2,"Fast"
"1053",104,108,1,0,12.93,0,3.5,21,11.02,0,5.47,21,424.9649,1.7693,2.28,0,2,"Fast"
"1054",104,109,26,0,3.39,7,13.35,70,1.48,7,15.32,70,427.2762,2.8826,3.3944,1,2,"Fast"
"1055",104,110,17,0,8.83,7,7.44,28,6.98,7,9.41,28,430.7015,5.9767,6.4872,0,2,"Fast"
"1056",104,111,37,0,3.29,21,13.35,63,1.44,21,15.32,63,437.2194,2.8995,3.4111,1,2,"Fast"
"1057",104,112,33,0,13.39,21,1.53,42,11.67,21,3.5,42,440.6613,6.4098,6.9362,0,2,"Fast"
"1058",104,113,1,1,14.84,0,1.53,21,12.93,0,3.5,21,447.6282,3.0665,3.5775,0,2,"Fast"
"1059",104,114,35,0,3.5,21,15.27,42,1.53,21,17.52,42,451.2364,4.2338,4.7581,1,2,"Fast"
"1060",104,115,7,0,3.29,0,13.35,42,1.44,0,15.32,42,456.0251,3.4619,3.9768,1,2,"Fast"
"1061",104,116,10,0,3.5,0,15.27,42,1.53,0,17.52,42,460.0323,2.3906,2.9124,1,2,"Fast"
"1062",104,117,28,1,11.59,7,1.53,70,10.1,7,3.5,70,462.9753,3.2316,3.7443,0,2,"Fast"
"1063",104,118,2,1,14.38,0,1.53,21,12.53,0,3.5,21,466.7498,3.601,4.1262,0,2,"Fast"
"1064",104,119,15,0,15.17,0,1.75,63,13.22,0,4,63,470.9067,3.2276,3.7439,0,2,"Fast"
"1065",104,120,27,0,11.56,7,3.5,70,9.85,7,5.47,70,474.6812,3.6446,4.1593,0,2,"Fast"
"1066",104,121,29,1,8.55,7,3.5,70,7.29,7,5.47,70,478.8712,7.4231,7.9501,0,2,"Fast"
"1067",104,122,21,1,15.32,7,1.53,49,13.35,7,3.5,49,486.8524,3.0498,3.5606,0,2,"Fast"
"1068",104,123,43,0,2.65,21,13.35,84,1.16,21,15.32,84,490.444,2.7631,3.278,1,2,"Fast"
"1069",104,124,12,0,2.65,21,13.35,84,1.16,21,15.32,84,493.7528,3.4376,3.9598,1,2,"Fast"
"1070",104,125,12,1,3.03,0,13.35,63,1.33,0,15.32,63,497.7434,2.2949,2.8128,1,2,"Fast"
"1071",104,126,4,1,12.36,0,1.53,21,10.77,0,3.5,21,500.5867,1.7484,2.264,0,2,"Fast"
"1072",104,127,32,1,14.38,21,1.53,42,12.53,21,3.5,42,502.8813,3.1818,3.6942,0,2,"Fast"
"1073",104,128,27,1,13.26,7,1.53,70,11.56,7,3.5,70,506.6059,4.553,5.0747,0,2,"Fast"
"1074",104,129,29,1,9.81,7,1.53,70,8.55,7,3.5,70,511.7105,1.208,1.7325,0,2,"Fast"
"1075",104,130,17,0,12.53,7,3.5,28,10.68,7,5.47,28,513.473,1.4697,1.9983,0,2,"Fast"
"1076",104,131,17,0,14.38,7,1.53,28,12.53,7,3.5,28,515.5015,1.1291,1.6485,0,2,"Fast"
"1077",104,132,24,0,3.06,7,13.35,49,1.34,7,15.32,49,517.1809,2.1217,2.646,1,2,"Fast"
"1078",104,133,23,0,14.38,7,1.53,49,12.53,7,3.5,49,519.858,1.4369,1.9477,0,2,"Fast"
"1079",104,134,3,0,11.67,0,3.5,21,9.95,0,5.47,21,521.8367,3.2425,3.76,1,2,"Fast"
"1080",104,135,3,1,3.06,0,13.35,21,1.34,0,15.32,21,525.6277,2.4191,2.9454,1,2,"Fast"
"1081",106,1,37,0,8.83,21,7.44,63,6.98,21,9.41,63,2.1284,2.7868,3.438,1,1,"Fast"
"1082",106,2,23,0,8.83,7,7.44,49,6.98,7,9.41,49,5.6035,2.1191,2.6474,1,1,"Fast"
"1083",106,3,31,1,9.12,21,7.44,42,7.21,21,9.41,42,8.2804,2.2832,2.7967,0,1,"Fast"
"1084",106,4,5,0,9.41,0,8.51,21,7.44,0,10.76,21,11.1239,2.8314,3.3447,1,1,"Fast"
"1085",106,5,32,0,8.83,21,7.44,42,6.98,21,9.41,42,14.4992,2.6954,3.2119,0,1,"Fast"
"1086",106,6,17,0,8.83,7,7.44,28,6.98,7,9.41,28,17.7416,1.9893,2.5137,0,1,"Fast"
"1087",106,7,22,0,9.12,7,7.44,49,7.21,7,9.41,49,20.2856,2.133,2.6463,0,1,"Fast"
"1088",106,8,11,1,9.1,0,7.44,63,7.2,0,9.41,63,22.9626,1.9923,2.5136,0,1,"Fast"
"1089",106,9,4,1,7.59,0,7.44,21,6,0,9.41,21,25.5066,2.008,2.5303,0,1,"Fast"
"1090",106,10,30,1,9.32,7,8.51,70,7.37,7,10.76,70,28.0672,2.4163,2.9294,0,1,"Fast"
"1091",106,11,21,0,9.41,7,7.44,49,7.44,7,9.41,49,31.0269,1.7845,2.2971,0,1,"Fast"
"1092",106,12,27,1,8.15,7,7.44,70,6.44,7,9.41,70,33.3548,1.9607,2.4803,1,1,"Fast"
"1093",106,13,33,1,8.23,21,7.44,42,6.5,21,9.41,42,35.8655,2.1697,2.696,0,1,"Fast"
"1094",106,14,33,1,11.67,21,3.5,42,9.95,21,5.47,42,38.6091,2.2187,2.7294,0,1,"Fast"
"1095",106,15,20,1,9.41,7,8.51,28,7.44,7,10.76,28,41.3692,2.6813,3.1951,0,1,"Fast"
"1096",106,16,36,1,9.12,21,7.44,63,7.21,21,9.41,63,44.595,2.4959,3.0124,1,1,"Fast"
"1097",106,17,34,1,7.59,21,7.44,42,6,21,9.41,42,47.6378,2.3728,2.8962,0,1,"Fast"
"1098",106,18,36,0,5.3,21,11.38,63,3.39,21,13.35,63,50.564,2.6794,3.1955,1,1,"Fast"
"1099",106,19,44,1,6.03,21,7.44,84,4.76,21,9.41,84,53.7899,3.2606,3.78,0,1,"Fast"
"1100",106,20,5,1,6.03,21,7.44,84,4.76,21,9.41,84,57.6143,2.1413,2.6633,1,1,"Fast"
"1101",106,21,21,1,13.35,7,3.5,49,11.38,7,5.47,49,60.3079,3.9194,4.4424,1,1,"Fast"
"1102",106,22,19,1,7.59,7,7.44,28,6,7,9.41,28,64.7807,3.751,4.2757,0,1,"Fast"
"1103",106,23,45,1,9.32,21,8.51,84,7.37,21,10.76,84,69.0872,3.8875,4.4091,1,1,"Fast"
"1104",106,24,4,0,10.77,0,3.5,21,9.18,0,5.47,21,73.5268,3.4806,3.9932,1,1,"Fast"
"1105",106,25,19,1,10.77,7,3.5,28,9.18,7,5.47,28,77.5506,4.2732,4.7915,1,1,"Fast"
"1106",106,26,9,1,7.59,0,7.44,42,6,0,9.41,42,82.3726,2.1162,2.6297,0,1,"Fast"
"1107",106,27,37,1,5.14,21,11.38,63,3.29,21,13.35,63,85.033,4.0818,4.6088,1,1,"Fast"
"1108",106,28,26,1,9.1,7,7.44,70,7.2,7,9.41,70,89.672,3.6975,4.2097,0,1,"Fast"
"1109",106,29,27,1,4.74,7,11.38,70,3.03,7,13.35,70,93.9121,3.2735,3.7936,0,1,"Fast"
"1110",106,30,39,0,7.59,21,7.44,63,6,21,9.41,63,97.7364,4.505,5.0241,1,1,"Fast"
"1111",106,31,35,1,9.41,21,8.51,42,7.44,21,10.76,42,102.7911,2.7944,3.3116,0,1,"Fast"
"1112",106,32,20,1,13.35,7,4,28,11.38,7,6.26,28,106.1332,3.3664,3.8937,0,1,"Fast"
"1113",106,33,23,1,5.14,7,11.38,49,3.29,7,13.35,49,110.0573,4.3169,4.8416,1,1,"Fast"
"1114",106,34,30,0,13.22,7,4,70,11.27,7,6.26,70,114.9291,3.0448,3.5611,1,1,"Fast"
"1115",106,35,36,1,3.39,21,13.35,63,1.48,21,15.32,63,118.5373,4.2829,4.8084,0,1,"Fast"
"1116",106,36,44,0,8.55,21,3.5,84,7.29,21,5.47,84,123.3759,2.852,3.3614,1,1,"Fast"
"1117",106,37,32,0,12.53,21,3.5,42,10.68,21,5.47,42,126.7679,3.4526,3.9769,1,1,"Fast"
"1118",106,38,4,0,2.83,0,13.35,21,1.24,0,15.32,21,130.7918,3.5052,4.0267,1,1,"Fast"
"1119",106,39,15,0,9.32,0,8.51,63,7.37,0,10.76,63,134.8489,2.9683,3.4947,1,1,"Fast"
"1120",106,40,7,0,8.83,0,7.44,42,6.98,0,9.41,42,138.3739,3.8197,4.3427,1,1,"Fast"
"1121",106,41,38,0,8.23,21,7.44,63,6.5,21,9.41,63,142.7469,4.7522,5.2739,1,1,"Fast"
"1122",106,42,34,0,10.77,21,3.5,42,9.18,21,5.47,42,148.0511,3.5585,4.0766,1,1,"Fast"
"1123",106,43,18,0,8.23,7,7.44,28,6.5,7,9.41,28,152.1581,4.5837,5.1077,0,1,"Fast"
"1124",106,44,1,0,9.12,0,7.44,21,7.21,0,9.41,21,157.296,3.6129,4.1262,0,1,"Fast"
"1125",106,45,2,0,8.83,0,7.44,21,6.98,0,9.41,21,161.4528,3.3851,3.9106,0,1,"Fast"
"1126",106,46,22,1,12.93,7,3.5,49,11.02,7,5.47,49,165.3936,2.7236,3.2452,0,1,"Fast"
"1127",106,47,38,0,4.78,21,11.38,63,3.06,21,13.35,63,168.6689,3.8929,4.4094,0,1,"Fast"
"1128",106,48,8,0,8.23,0,7.44,42,6.5,0,9.41,42,173.1087,3.9445,4.4588,1,1,"Fast"
"1129",106,49,1,0,12.93,0,3.5,21,11.02,0,5.47,21,177.5981,3.0302,3.5442,1,1,"Fast"
"1130",106,50,39,0,4.41,21,11.38,63,2.83,21,13.35,63,181.173,3.2182,3.7442,1,1,"Fast"
"1131",106,51,41,0,9.1,21,7.44,84,7.2,21,9.41,84,184.9475,5.455,5.9719,0,1,"Fast"
"1132",106,52,22,0,14.84,7,1.53,49,12.93,7,3.5,49,190.95,3.7313,4.2596,1,1,"Fast"
"1133",106,53,34,1,2.83,21,13.35,42,1.24,21,15.32,42,195.2399,5.4294,5.9556,0,1,"Fast"
"1134",106,54,8,1,2.83,21,13.35,42,1.24,21,15.32,42,201.2258,2.6598,3.1785,0,1,"Fast"
"1135",106,55,7,0,2.83,21,13.35,42,1.24,21,15.32,42,204.4349,3.259,3.7763,0,1,"Fast"
"1136",106,56,39,1,2.83,21,13.35,63,1.24,21,15.32,63,208.2426,4.1576,4.6751,1,1,"Fast"
"1137",106,57,42,0,8.15,21,7.44,84,6.44,21,9.41,84,212.9481,5.6434,6.1549,1,1,"Fast"
"1138",106,58,37,0,3.29,21,13.35,63,1.44,21,15.32,63,219.1336,3.468,3.9934,1,1,"Fast"
"1139",106,59,11,0,12.91,0,3.5,63,11.01,0,5.47,63,223.1574,3.8408,4.3592,0,1,"Fast"
"1140",106,60,18,0,11.67,7,3.5,28,9.95,7,5.47,28,227.547,2.9791,3.4947,1,1,"Fast"
"1141",106,61,45,1,5.42,21,13.01,84,3.47,21,15.27,84,231.0721,5.5919,6.105,1,1,"Fast"
"1142",106,62,6,0,9.12,0,7.44,42,7.21,0,9.41,42,237.2074,7.2319,7.7515,0,1,"Fast"
"1143",106,63,6,1,12.93,0,3.5,42,11.02,0,5.47,42,244.9893,5.75,6.2715,0,1,"Fast"
"1144",106,64,12,0,8.15,0,7.44,63,6.44,0,9.41,63,251.2911,5.3347,5.8557,0,1,"Fast"
"1145",106,65,2,0,12.53,0,3.5,21,10.68,0,5.47,21,257.1772,5.9531,6.4709,1,1,"Fast"
"1146",106,66,10,0,9.41,0,8.51,42,7.44,0,10.76,42,263.6786,4.9073,5.4232,1,1,"Fast"
"1147",106,67,10,0,9.41,0,8.51,42,7.44,0,10.76,42,269.1324,5.9171,6.4375,0,1,"Fast"
"1148",106,68,31,1,12.93,21,3.5,42,11.02,21,5.47,42,275.6005,5.4504,5.9723,0,1,"Fast"
"1149",106,69,24,1,8.23,7,7.44,49,6.5,7,9.41,49,281.603,4.6272,5.1409,1,1,"Fast"
"1150",106,70,20,0,15.32,7,1.75,28,13.35,7,4,28,286.7741,6.2789,6.8037,0,1,"Fast"
"1151",106,71,24,0,4.78,7,11.38,49,3.06,7,13.35,49,293.608,3.0699,3.5943,0,1,"Fast"
"1152",106,72,16,0,9.12,7,7.44,28,7.21,7,9.41,28,297.2328,2.0045,2.5305,1,1,"Fast"
"1153",106,73,42,1,4.74,21,11.38,84,3.03,21,13.35,84,299.7934,3.7023,4.2268,1,1,"Fast"
"1154",106,74,13,1,7.12,0,7.44,63,5.63,0,9.41,63,304.0501,6.9269,7.4522,0,1,"Fast"
"1155",106,75,28,1,7.12,7,7.44,70,5.63,7,9.41,70,311.5324,5.4695,5.9888,0,1,"Fast"
"1156",106,76,3,0,8.23,0,7.44,21,6.5,0,9.41,21,317.5514,4.9924,5.5066,1,1,"Fast"
"1157",106,77,44,0,2.24,21,13.35,84,0.98,21,15.32,84,323.0885,3.1993,3.7277,0,1,"Fast"
"1158",106,78,14,1,6.03,0,7.44,63,4.76,0,9.41,63,326.8463,3.5462,4.0604,0,1,"Fast"
"1159",106,79,43,1,7.12,21,7.44,84,5.63,21,9.41,84,330.9367,6.3484,6.87,0,1,"Fast"
"1160",106,80,1,1,3.39,0,13.35,21,1.48,0,15.32,21,337.8371,5.1872,5.7062,0,1,"Fast"
"1161",106,81,16,0,5.3,7,11.38,28,3.39,7,13.35,28,343.5736,3.8714,4.3926,0,1,"Fast"
"1162",106,82,6,1,14.84,0,1.53,42,12.93,0,3.5,42,347.9965,3.2246,3.7442,0,1,"Fast"
"1163",106,83,12,0,11.56,0,3.5,63,9.85,0,5.47,63,351.7709,3.9379,4.4591,0,1,"Fast"
"1164",106,84,17,1,12.53,7,3.5,28,10.68,7,5.47,28,356.2603,3.7603,4.276,0,1,"Fast"
"1165",106,85,8,1,13.39,0,1.53,42,11.67,0,3.5,42,360.5669,4.779,5.3072,0,1,"Fast"
"1166",106,86,31,0,14.84,21,1.53,42,12.93,21,3.5,42,365.9043,4.58,5.1077,1,1,"Fast"
"1167",106,87,25,0,7.59,7,7.44,49,6,7,9.41,49,371.0422,4.6497,5.1742,0,1,"Fast"
"1168",106,88,45,0,3.47,21,15.27,84,1.52,21,17.52,84,376.2466,3.5506,4.0768,0,1,"Fast"
"1169",106,89,21,0,3.5,7,13.35,49,1.53,7,15.32,49,380.3535,1.7889,2.3142,0,1,"Fast"
"1170",106,90,15,1,3.5,7,13.35,49,1.53,7,15.32,49,382.698,1.8115,2.3305,0,1,"Fast"
"1171",106,91,3,0,3.5,7,13.35,49,1.53,7,15.32,49,385.0591,2.8589,3.3782,0,1,"Fast"
"1172",106,92,35,0,13.35,21,4,42,11.38,21,6.26,42,388.4675,6.186,6.7037,1,1,"Fast"
"1173",106,93,12,1,13.26,0,1.53,63,11.56,0,3.5,63,395.2017,3.292,3.8108,0,1,"Fast"
"1174",106,94,41,0,12.91,21,3.5,84,11.01,21,5.47,84,399.0428,2.6902,3.2122,0,1,"Fast"
"1175",106,95,18,1,3.06,7,13.35,28,1.34,7,15.32,28,402.2852,4.2498,4.7751,0,1,"Fast"
"1176",106,96,43,1,10.1,21,3.5,84,8.61,21,5.47,84,407.0905,3.3082,3.8273,0,1,"Fast"
"1177",106,97,13,1,10.1,0,3.5,63,8.61,0,5.47,63,410.9481,2.9867,3.5114,0,1,"Fast"
"1178",106,98,19,0,2.83,7,13.35,28,1.24,7,15.32,28,414.4897,5.3119,5.8393,0,1,"Fast"
"1179",106,99,5,1,3.5,0,15.27,21,1.53,0,17.52,21,420.3592,1.4578,1.9817,0,1,"Fast"
"1180",106,100,23,1,3.29,7,13.35,49,1.44,7,15.32,49,422.3712,3.9214,4.4424,0,1,"Fast"
"1181",106,101,28,1,10.1,7,3.5,70,8.61,7,5.47,70,426.844,4.2486,4.7751,1,1,"Fast"
"1182",106,102,35,1,3.5,21,15.27,42,1.53,21,17.52,42,431.6493,3.6035,4.1265,0,1,"Fast"
"1183",106,103,17,1,14.38,7,1.53,28,12.53,7,3.5,28,435.8062,3.7921,4.3095,1,1,"Fast"
"1184",106,104,38,1,13.39,21,1.53,63,11.67,21,3.5,63,440.1459,3.5084,4.0267,0,1,"Fast"
"1185",106,105,25,1,10.77,7,3.5,49,9.18,7,5.47,49,444.203,3.2994,3.8102,0,1,"Fast"
"1186",106,106,14,0,8.55,0,3.5,63,7.29,0,5.47,63,448.044,6.0011,6.5208,1,1,"Fast"
"1187",106,107,30,0,3.47,7,15.27,70,1.52,7,17.52,70,454.5952,6.642,7.1695,0,1,"Fast"
"1188",106,108,29,0,6.03,7,7.44,70,4.76,7,9.41,70,461.7949,5.4007,5.9225,1,1,"Fast"
"1189",106,109,9,0,10.77,0,3.5,42,9.18,0,5.47,42,467.7475,5.0938,5.6228,1,1,"Fast"
"1190",106,110,33,1,13.39,21,1.53,42,11.67,21,3.5,42,473.4009,5.0076,5.5231,1,1,"Fast"
"1191",106,111,43,0,11.59,21,1.53,84,10.1,21,3.5,84,478.9545,3.4805,4.0103,1,1,"Fast"
"1192",106,112,24,1,13.39,7,1.53,49,11.67,7,3.5,49,482.995,7.0692,7.5848,0,1,"Fast"
"1193",106,113,29,0,3.5,7,11.38,70,2.24,7,13.35,70,490.6103,5.3672,5.889,1,1,"Fast"
"1194",106,114,32,0,3.29,21,13.35,42,1.44,21,15.32,42,496.5297,5.0488,5.5732,0,1,"Fast"
"1195",106,115,41,1,14.82,21,1.53,84,12.91,21,3.5,84,502.1332,6.3705,6.8864,1,1,"Fast"
"1196",106,116,3,1,13.39,0,1.53,21,11.67,0,3.5,21,509.0502,2.6944,3.2119,0,1,"Fast"
"1197",106,117,27,0,13.26,7,1.53,70,11.56,7,3.5,70,512.2925,4.0992,4.6256,1,1,"Fast"
"1198",106,118,2,1,3.29,0,13.35,21,1.44,0,15.32,21,516.9482,4.4689,4.9914,0,1,"Fast"
"1199",106,119,26,1,12.91,7,3.5,70,11.01,7,5.47,70,521.9697,5.3186,5.8392,1,1,"Fast"
"1200",106,120,40,0,9.41,21,8.51,63,7.44,21,10.76,63,527.8392,4.7263,5.2403,0,1,"Fast"
"1201",106,121,15,1,15.17,0,1.75,63,13.22,0,4,63,533.1102,4.5031,5.0244,1,1,"Fast"
"1202",106,122,26,1,3.39,7,13.35,70,1.48,7,15.32,70,538.1649,5.0957,5.6228,0,1,"Fast"
"1203",106,123,28,0,2.65,7,13.35,70,1.16,7,15.32,70,543.8182,3.7131,4.2259,1,1,"Fast"
"1204",106,124,11,1,14.82,0,1.53,63,12.91,0,3.5,63,548.0749,3.4243,3.9425,0,1,"Fast"
"1205",106,125,14,1,2.24,0,13.35,63,0.98,0,15.32,63,552.0488,3.3628,3.8768,0,1,"Fast"
"1206",106,126,29,1,2.24,7,13.35,70,0.98,7,15.32,70,555.9563,5.3641,5.8895,1,1,"Fast"
"1207",106,127,16,0,14.84,7,1.53,28,12.93,7,3.5,28,561.8757,6.4533,6.9699,0,1,"Fast"
"1208",106,128,13,1,11.59,0,1.53,63,10.1,0,3.5,63,568.8758,3.4367,3.9604,0,1,"Fast"
"1209",106,129,42,0,3.03,21,13.35,84,1.33,21,15.32,84,572.8664,3.4854,4.01,0,1,"Fast"
"1210",106,130,40,1,13.35,21,4,63,11.38,21,6.26,63,576.9069,3.5656,4.0935,0,1,"Fast"
"1211",106,131,40,0,15.32,21,1.75,63,13.35,21,4,63,581.0305,2.8183,3.3453,1,1,"Fast"
"1212",106,132,9,1,2.83,0,13.35,42,1.24,0,15.32,42,584.4059,3.0993,3.6274,1,1,"Fast"
"1213",106,133,7,0,14.38,0,1.53,42,12.53,0,3.5,42,588.0639,2.3452,2.8629,1,1,"Fast"
"1214",106,134,10,0,15.32,0,1.75,42,13.35,0,4,42,590.9571,3.9713,4.4922,1,1,"Fast"
